submission_id,RT,age,comments,education,endTime,experiment_id,gender,languages,option1,option2,response,startTime,timeSpent,trial_name,trial_number
1225,6258,20,NA,Graduated High School,1604444222061,44,female,German,Metal,Jazz,Metal,1604444185627,0.6072333333333333,forced_choice,1
1225,3237,20,NA,Graduated High School,1604444222061,44,female,German,Biology,Logic,Logic,1604444185627,0.6072333333333333,forced_choice,2
1225,1704,20,NA,Graduated High School,1604444222061,44,female,German,Mountains,Beach,Beach,1604444185627,0.6072333333333333,forced_choice,3
1224,3337,24,NA,Graduated High School,1604433964876,44,female,"Russian, Georgian, German",Mountains,Beach,Beach,1604433938448,0.4404666666666667,forced_choice,1
1224,2198,24,NA,Graduated High School,1604433964876,44,female,"Russian, Georgian, German",Metal,Jazz,Jazz,1604433938448,0.4404666666666667,forced_choice,2
1224,1828,24,NA,Graduated High School,1604433964876,44,female,"Russian, Georgian, German",Biology,Logic,Biology,1604433938448,0.4404666666666667,forced_choice,3
1223,12299,21,NA,Graduated High School,1604423621345,44,female,NA,Mountains,Beach,Beach,1604423563027,0.9719666666666666,forced_choice,1
1223,6937,21,NA,Graduated High School,1604423621345,44,female,NA,Metal,Jazz,Jazz,1604423563027,0.9719666666666666,forced_choice,2
1223,3148,21,NA,Graduated High School,1604423621345,44,female,NA,Biology,Logic,Biology,1604423563027,0.9719666666666666,forced_choice,3
1222,5629,21,NA,Graduated High School,1604387105025,44,female,german,Metal,Jazz,Jazz,1604387068261,0.6127333333333334,forced_choice,1
1222,3087,21,NA,Graduated High School,1604387105025,44,female,german,Biology,Logic,Biology,1604387068261,0.6127333333333334,forced_choice,2
1222,3334,21,NA,Graduated High School,1604387105025,44,female,german,Mountains,Beach,Beach,1604387068261,0.6127333333333334,forced_choice,3
1221,6299,22,NA,Graduated High School,1604335203089,44,male,NA,Mountains,Beach,Mountains,1604335153552,0.8256166666666667,forced_choice,1
1221,5228,22,NA,Graduated High School,1604335203089,44,male,NA,Biology,Logic,Biology,1604335153552,0.8256166666666667,forced_choice,2
1221,4121,22,NA,Graduated High School,1604335203089,44,male,NA,Metal,Jazz,Jazz,1604335153552,0.8256166666666667,forced_choice,3
1220,6672,26,NA,Graduated High School,1604327781090,44,female,German,Biology,Logic,Biology,1604327748516,0.5429,forced_choice,1
1220,3345,26,NA,Graduated High School,1604327781090,44,female,German,Metal,Jazz,Jazz,1604327748516,0.5429,forced_choice,2
1220,2780,26,NA,Graduated High School,1604327781090,44,female,German,Mountains,Beach,Beach,1604327748516,0.5429,forced_choice,3
1219,4514,20,NA,Graduated High School,1604311888966,44,female,german,Biology,Logic,Biology,1604311835396,0.8928333333333334,forced_choice,1
1219,3787,20,NA,Graduated High School,1604311888966,44,female,german,Metal,Jazz,Jazz,1604311835396,0.8928333333333334,forced_choice,2
1219,5447,20,NA,Graduated High School,1604311888966,44,female,german,Mountains,Beach,Mountains,1604311835396,0.8928333333333334,forced_choice,3
1218,8346,24,NA,Graduated High School,1604265088296,44,female,German,Biology,Logic,Biology,1604265051806,0.6081666666666666,forced_choice,1
1218,1799,24,NA,Graduated High School,1604265088296,44,female,German,Mountains,Beach,Mountains,1604265051806,0.6081666666666666,forced_choice,2
1218,1619,24,NA,Graduated High School,1604265088296,44,female,German,Metal,Jazz,Jazz,1604265051806,0.6081666666666666,forced_choice,3
1217,8311,28,NA,Graduated College,1604250506838,44,male,Spanish,Metal,Jazz,Jazz,1604250435265,1.1928833333333333,forced_choice,1
1217,8596,28,NA,Graduated College,1604250506838,44,male,Spanish,Mountains,Beach,Mountains,1604250435265,1.1928833333333333,forced_choice,2
1217,4514,28,NA,Graduated College,1604250506838,44,male,Spanish,Biology,Logic,Logic,1604250435265,1.1928833333333333,forced_choice,3
1216,10662,23,NA,Graduated High School,1604243783101,44,male,Arabic,Biology,Logic,Logic,1604243561341,3.696,forced_choice,1
1216,9708,23,NA,Graduated High School,1604243783101,44,male,Arabic,Metal,Jazz,Jazz,1604243561341,3.696,forced_choice,2
1216,16190,23,NA,Graduated High School,1604243783101,44,male,Arabic,Mountains,Beach,Mountains,1604243561341,3.696,forced_choice,3
1215,6816,23,NA,Graduated High School,1604243724446,44,female,"German, Polish",Mountains,Beach,Beach,1604243664664,0.9963666666666666,forced_choice,1
1215,6314,23,NA,Graduated High School,1604243724446,44,female,"German, Polish",Biology,Logic,Logic,1604243664664,0.9963666666666666,forced_choice,2
1215,2946,23,NA,Graduated High School,1604243724446,44,female,"German, Polish",Metal,Jazz,Jazz,1604243664664,0.9963666666666666,forced_choice,3
1214,8412,22,NA,Graduated High School,1604072047086,44,male,german,Mountains,Beach,Mountains,1604071989787,0.9549833333333333,forced_choice,1
1214,3318,22,NA,Graduated High School,1604072047086,44,male,german,Biology,Logic,Logic,1604071989787,0.9549833333333333,forced_choice,2
1214,10903,22,NA,Graduated High School,1604072047086,44,male,german,Metal,Jazz,Metal,1604071989787,0.9549833333333333,forced_choice,3
1211,6311,20,NA,Graduated High School,1603973868583,44,female,German,Biology,Logic,Biology,1603973828011,0.6762,forced_choice,1
1211,2781,20,NA,Graduated High School,1603973868583,44,female,German,Metal,Jazz,Jazz,1603973828011,0.6762,forced_choice,2
1211,3749,20,NA,Graduated High School,1603973868583,44,female,German,Mountains,Beach,Mountains,1603973828011,0.6762,forced_choice,3
1210,1679,23,NA,Graduated High School,1603969223260,44,male,German,Biology,Logic,Logic,1603969204224,0.31726666666666664,forced_choice,1
1210,1263,23,NA,Graduated High School,1603969223260,44,male,German,Mountains,Beach,Mountains,1603969204224,0.31726666666666664,forced_choice,2
1210,1113,23,NA,Graduated High School,1603969223260,44,male,German,Metal,Jazz,Jazz,1603969204224,0.31726666666666664,forced_choice,3
1209,8317,20,NA,Graduated High School,1603967861785,44,female,German,Metal,Jazz,Jazz,1603967830979,0.5134333333333333,forced_choice,1
1209,3260,20,NA,Graduated High School,1603967861785,44,female,German,Mountains,Beach,Beach,1603967830979,0.5134333333333333,forced_choice,2
1209,2956,20,NA,Graduated High School,1603967861785,44,female,German,Biology,Logic,Biology,1603967830979,0.5134333333333333,forced_choice,3
1208,11168,20,NA,Graduated High School,1603964160701,44,male,German/English,Biology,Logic,Logic,1603964115651,0.7508333333333334,forced_choice,1
1208,2237,20,NA,Graduated High School,1603964160701,44,male,German/English,Metal,Jazz,Jazz,1603964115651,0.7508333333333334,forced_choice,2
1208,3017,20,NA,Graduated High School,1603964160701,44,male,German/English,Mountains,Beach,Beach,1603964115651,0.7508333333333334,forced_choice,3
1207,6855,21,NA,Graduated High School,1603963087567,44,female,german,Metal,Jazz,Jazz,1603963050769,0.6133,forced_choice,1
1207,2586,21,NA,Graduated High School,1603963087567,44,female,german,Mountains,Beach,Mountains,1603963050769,0.6133,forced_choice,2
1207,4671,21,NA,Graduated High School,1603963087567,44,female,german,Biology,Logic,Biology,1603963050769,0.6133,forced_choice,3
1206,6864,32,NA,Higher Degree,1603951391685,44,male,Farsi,Metal,Jazz,Jazz,1603951107976,4.728483333333333,forced_choice,1
1206,1973,32,NA,Higher Degree,1603951391685,44,male,Farsi,Mountains,Beach,Beach,1603951107976,4.728483333333333,forced_choice,2
1206,2184,32,NA,Higher Degree,1603951391685,44,male,Farsi,Biology,Logic,Logic,1603951107976,4.728483333333333,forced_choice,3
1205,3769,19,"I may or may not have participated twice because I felt like nobody's gonna choose ""mountains"" and I thought that's sad.",Graduated High School,1603937186048,44,female,German,Biology,Logic,Logic,1603937046892,2.3192666666666666,forced_choice,1
1205,8804,19,"I may or may not have participated twice because I felt like nobody's gonna choose ""mountains"" and I thought that's sad.",Graduated High School,1603937186048,44,female,German,Mountains,Beach,Mountains,1603937046892,2.3192666666666666,forced_choice,2
1205,1361,19,"I may or may not have participated twice because I felt like nobody's gonna choose ""mountains"" and I thought that's sad.",Graduated High School,1603937186048,44,female,German,Metal,Jazz,Metal,1603937046892,2.3192666666666666,forced_choice,3
1204,4904,19,NA,NA,1603912270966,44,female,German,Mountains,Beach,Beach,1603912229808,0.6859666666666666,forced_choice,1
1204,4524,19,NA,NA,1603912270966,44,female,German,Biology,Logic,Logic,1603912229808,0.6859666666666666,forced_choice,2
1204,1318,19,NA,NA,1603912270966,44,female,German,Metal,Jazz,Jazz,1603912229808,0.6859666666666666,forced_choice,3
1198,11115,30,NA,Graduated College,1603898738717,44,female,turkish,Mountains,Beach,Mountains,1603898529966,3.4791833333333333,forced_choice,1
1198,3026,30,NA,Graduated College,1603898738717,44,female,turkish,Metal,Jazz,Jazz,1603898529966,3.4791833333333333,forced_choice,2
1198,3111,30,NA,Graduated College,1603898738717,44,female,turkish,Biology,Logic,Biology,1603898529966,3.4791833333333333,forced_choice,3
1197,3032,21,NA,Graduated High School,1603898305481,44,male,German,Metal,Jazz,Jazz,1603898258047,0.7905666666666666,forced_choice,1
1197,1810,21,NA,Graduated High School,1603898305481,44,male,German,Mountains,Beach,Mountains,1603898258047,0.7905666666666666,forced_choice,2
1197,2546,21,NA,Graduated High School,1603898305481,44,male,German,Biology,Logic,Biology,1603898258047,0.7905666666666666,forced_choice,3
1196,6766,20,NA,Graduated High School,1603896510712,44,female,German,Mountains,Beach,Beach,1603896476366,0.5724333333333333,forced_choice,1
1196,4091,20,NA,Graduated High School,1603896510712,44,female,German,Biology,Logic,Biology,1603896476366,0.5724333333333333,forced_choice,2
1196,2349,20,NA,Graduated High School,1603896510712,44,female,German,Metal,Jazz,Jazz,1603896476366,0.5724333333333333,forced_choice,3
1195,4800,21,NA,Graduated High School,1603895945620,44,male,German,Mountains,Beach,Mountains,1603895862805,1.38025,forced_choice,1
1195,4790,21,NA,Graduated High School,1603895945620,44,male,German,Metal,Jazz,Jazz,1603895862805,1.38025,forced_choice,2
1195,4336,21,NA,Graduated High School,1603895945620,44,male,German,Biology,Logic,Logic,1603895862805,1.38025,forced_choice,3
1190,4797,35,NA,Graduated College,1603886331667,44,male,German,Metal,Jazz,Metal,1603886290620,0.6841166666666667,forced_choice,1
1190,3891,35,NA,Graduated College,1603886331667,44,male,German,Mountains,Beach,Beach,1603886290620,0.6841166666666667,forced_choice,2
1190,4196,35,NA,Graduated College,1603886331667,44,male,German,Biology,Logic,Logic,1603886290620,0.6841166666666667,forced_choice,3
1189,15558,21,NA,Graduated High School,1603885658039,44,female,german,Mountains,Beach,Mountains,1603885598683,0.9892666666666666,forced_choice,1
1189,3163,21,NA,Graduated High School,1603885658039,44,female,german,Metal,Jazz,Jazz,1603885598683,0.9892666666666666,forced_choice,2
1189,1679,21,NA,Graduated High School,1603885658039,44,female,german,Biology,Logic,Logic,1603885598683,0.9892666666666666,forced_choice,3
1188,7006,22,NA,NA,1603882916921,44,male,german,Biology,Logic,Biology,1603882786403,2.1753,forced_choice,1
1188,3344,22,NA,NA,1603882916921,44,male,german,Metal,Jazz,Jazz,1603882786403,2.1753,forced_choice,2
1188,4087,22,NA,NA,1603882916921,44,male,german,Mountains,Beach,Mountains,1603882786403,2.1753,forced_choice,3
1187,9197,20,NA,Graduated High School,1603881359281,44,female,German,Mountains,Beach,Mountains,1603881309238,0.83405,forced_choice,1
1187,9932,20,NA,Graduated High School,1603881359281,44,female,German,Metal,Jazz,Jazz,1603881309238,0.83405,forced_choice,2
1187,2700,20,NA,Graduated High School,1603881359281,44,female,German,Biology,Logic,Logic,1603881309238,0.83405,forced_choice,3
1185,5219,21,NA,Graduated High School,1603880841148,44,female,german/swiss german,Biology,Logic,Biology,1603880458530,6.376966666666666,forced_choice,1
1185,7676,21,NA,Graduated High School,1603880841148,44,female,german/swiss german,Metal,Jazz,Metal,1603880458530,6.376966666666666,forced_choice,2
1185,2023,21,NA,Graduated High School,1603880841148,44,female,german/swiss german,Mountains,Beach,Mountains,1603880458530,6.376966666666666,forced_choice,3
1184,6913,24,NA,Graduated College,1603876459799,44,male,German,Mountains,Beach,Mountains,1603876420883,0.6486,forced_choice,1
1184,5630,24,NA,Graduated College,1603876459799,44,male,German,Metal,Jazz,Metal,1603876420883,0.6486,forced_choice,2
1184,4046,24,NA,Graduated College,1603876459799,44,male,German,Biology,Logic,Logic,1603876420883,0.6486,forced_choice,3
1183,4815,21,NA,Graduated College,1603873562751,44,female,NA,Metal,Jazz,Jazz,1603873522661,0.6681666666666667,forced_choice,1
1183,2905,21,NA,Graduated College,1603873562751,44,female,NA,Mountains,Beach,Beach,1603873522661,0.6681666666666667,forced_choice,2
1183,2439,21,NA,Graduated College,1603873562751,44,female,NA,Biology,Logic,Logic,1603873522661,0.6681666666666667,forced_choice,3
1182,5936,20,NA,Graduated High School,1603873457555,44,female,german,Mountains,Beach,Beach,1603873421907,0.5941333333333333,forced_choice,1
1182,2867,20,NA,Graduated High School,1603873457555,44,female,german,Metal,Jazz,Jazz,1603873421907,0.5941333333333333,forced_choice,2
1182,2300,20,NA,Graduated High School,1603873457555,44,female,german,Biology,Logic,Biology,1603873421907,0.5941333333333333,forced_choice,3
1181,9637,22,NA,Graduated High School,1603869631644,44,female,german,Mountains,Beach,Mountains,1603869574436,0.9534666666666667,forced_choice,1
1181,4459,22,NA,Graduated High School,1603869631644,44,female,german,Metal,Jazz,Jazz,1603869574436,0.9534666666666667,forced_choice,2
1181,6959,22,NA,Graduated High School,1603869631644,44,female,german,Biology,Logic,Biology,1603869574436,0.9534666666666667,forced_choice,3
1180,4126,21,NA,Graduated High School,1603866816910,44,female,german,Biology,Logic,Biology,1603866779095,0.63025,forced_choice,1
1180,4076,21,NA,Graduated High School,1603866816910,44,female,german,Metal,Jazz,Jazz,1603866779095,0.63025,forced_choice,2
1180,5826,21,NA,Graduated High School,1603866816910,44,female,german,Mountains,Beach,Beach,1603866779095,0.63025,forced_choice,3
1179,6300,21,NA,Graduated High School,1603866772714,44,female,german,Metal,Jazz,Jazz,1603866730729,0.69975,forced_choice,1
1179,7673,21,NA,Graduated High School,1603866772714,44,female,german,Mountains,Beach,Beach,1603866730729,0.69975,forced_choice,2
1179,6,21,NA,Graduated High School,1603866772714,44,female,german,Biology,Logic,Logic,1603866730729,0.69975,forced_choice,3
1178,6138,19,"God, these were hard...\nI need a ""uhm it depends"" - Button :)",Graduated High School,1603841260413,44,female,German,Biology,Logic,Logic,1603841163662,1.6125166666666666,forced_choice,1
1178,13823,19,"God, these were hard...\nI need a ""uhm it depends"" - Button :)",Graduated High School,1603841260413,44,female,German,Metal,Jazz,Jazz,1603841163662,1.6125166666666666,forced_choice,2
1178,3632,19,"God, these were hard...\nI need a ""uhm it depends"" - Button :)",Graduated High School,1603841260413,44,female,German,Mountains,Beach,Beach,1603841163662,1.6125166666666666,forced_choice,3
1177,7409,19,NA,Graduated High School,1603836227869,44,female,German,Biology,Logic,Logic,1603836188788,0.65135,forced_choice,1
1177,4454,19,NA,Graduated High School,1603836227869,44,female,German,Mountains,Beach,Mountains,1603836188788,0.65135,forced_choice,2
1177,2692,19,NA,Graduated High School,1603836227869,44,female,German,Metal,Jazz,Jazz,1603836188788,0.65135,forced_choice,3
1176,6565,20,NA,Graduated High School,1603833553252,44,male,deutsch,Mountains,Beach,Beach,1603833506989,0.77105,forced_choice,1
1176,7919,20,NA,Graduated High School,1603833553252,44,male,deutsch,Biology,Logic,Biology,1603833506989,0.77105,forced_choice,2
1176,3489,20,NA,Graduated High School,1603833553252,44,male,deutsch,Metal,Jazz,Jazz,1603833506989,0.77105,forced_choice,3
1175,4801,21,Michael you're amazing! I always hated statistics and so far you made it my favourite subject this year. Keep on!,Graduated High School,1603829377427,44,male,german,Biology,Logic,Logic,1603821930742,124.11141666666667,forced_choice,1
1175,2639,21,Michael you're amazing! I always hated statistics and so far you made it my favourite subject this year. Keep on!,Graduated High School,1603829377427,44,male,german,Mountains,Beach,Mountains,1603821930742,124.11141666666667,forced_choice,2
1175,1386,21,Michael you're amazing! I always hated statistics and so far you made it my favourite subject this year. Keep on!,Graduated High School,1603829377427,44,male,german,Metal,Jazz,Jazz,1603821930742,124.11141666666667,forced_choice,3
1174,12352,18,NA,NA,1603829069689,44,female,German,Mountains,Beach,Beach,1603829005343,1.0724333333333333,forced_choice,1
1174,3286,18,NA,NA,1603829069689,44,female,German,Metal,Jazz,Jazz,1603829005343,1.0724333333333333,forced_choice,2
1174,3163,18,NA,NA,1603829069689,44,female,German,Biology,Logic,Biology,1603829005343,1.0724333333333333,forced_choice,3
1173,5815,23,NA,Graduated High School,1603828996484,44,female,english,Biology,Logic,Biology,1603828897898,1.6431,forced_choice,1
1173,4495,23,NA,Graduated High School,1603828996484,44,female,english,Metal,Jazz,Jazz,1603828897898,1.6431,forced_choice,2
1173,4315,23,NA,Graduated High School,1603828996484,44,female,english,Mountains,Beach,Mountains,1603828897898,1.6431,forced_choice,3
1172,8125,27,NA,Graduated College,1603827534102,44,female,German,Metal,Jazz,Jazz,1603827410313,2.06315,forced_choice,1
1172,7010,27,NA,Graduated College,1603827534102,44,female,German,Biology,Logic,Biology,1603827410313,2.06315,forced_choice,2
1172,4536,27,NA,Graduated College,1603827534102,44,female,German,Mountains,Beach,Mountains,1603827410313,2.06315,forced_choice,3
1171,19392,19,NA,Graduated High School,1603822031534,44,male,NA,Biology,Logic,Biology,1603821806912,3.7437,forced_choice,1
1171,6807,19,NA,Graduated High School,1603822031534,44,male,NA,Mountains,Beach,Mountains,1603821806912,3.7437,forced_choice,2
1171,2596,19,NA,Graduated High School,1603822031534,44,male,NA,Metal,Jazz,Jazz,1603821806912,3.7437,forced_choice,3
1170,5489,18,NA,Graduated High School,1603820740775,44,female,German,Biology,Logic,Biology,1603820697307,0.7244666666666667,forced_choice,1
1170,2581,18,NA,Graduated High School,1603820740775,44,female,German,Metal,Jazz,Jazz,1603820697307,0.7244666666666667,forced_choice,2
1170,3606,18,NA,Graduated High School,1603820740775,44,female,German,Mountains,Beach,Beach,1603820697307,0.7244666666666667,forced_choice,3
1168,7413,27,"I speak English and German fluently,\nEnglish is like a second language to me though",Graduated College,1603818594264,44,female,Arabic,Biology,Logic,Logic,1603818437480,2.6130666666666666,forced_choice,1
1168,11837,27,"I speak English and German fluently,\nEnglish is like a second language to me though",Graduated College,1603818594264,44,female,Arabic,Mountains,Beach,Mountains,1603818437480,2.6130666666666666,forced_choice,2
1168,6517,27,"I speak English and German fluently,\nEnglish is like a second language to me though",Graduated College,1603818594264,44,female,Arabic,Metal,Jazz,Jazz,1603818437480,2.6130666666666666,forced_choice,3
1167,5856,23,NA,Graduated College,1603817673033,44,female,Turkish,Biology,Logic,Biology,1603817436640,3.9398833333333334,forced_choice,1
1167,4442,23,NA,Graduated College,1603817673033,44,female,Turkish,Metal,Jazz,Jazz,1603817436640,3.9398833333333334,forced_choice,2
1167,8449,23,NA,Graduated College,1603817673033,44,female,Turkish,Mountains,Beach,Mountains,1603817436640,3.9398833333333334,forced_choice,3
1166,17917,22,NA,Graduated High School,1603817329632,44,male,NA,Metal,Jazz,Jazz,1603817261649,1.13305,forced_choice,1
1166,6539,22,NA,Graduated High School,1603817329632,44,male,NA,Biology,Logic,Logic,1603817261649,1.13305,forced_choice,2
1166,17077,22,NA,Graduated High School,1603817329632,44,male,NA,Mountains,Beach,Beach,1603817261649,1.13305,forced_choice,3
1165,5453,20,NA,Graduated High School,1603816693280,44,female,german,Metal,Jazz,Metal,1603816640425,0.8809166666666667,forced_choice,1
1165,8364,20,NA,Graduated High School,1603816693280,44,female,german,Biology,Logic,Biology,1603816640425,0.8809166666666667,forced_choice,2
1165,16140,20,NA,Graduated High School,1603816693280,44,female,german,Mountains,Beach,Beach,1603816640425,0.8809166666666667,forced_choice,3
1164,6519,26,NA,Higher Degree,1603816381124,44,female,Spanish,Mountains,Beach,Beach,1603816331833,0.8215166666666667,forced_choice,1
1164,2521,26,NA,Higher Degree,1603816381124,44,female,Spanish,Metal,Jazz,Metal,1603816331833,0.8215166666666667,forced_choice,2
1164,3355,26,NA,Higher Degree,1603816381124,44,female,Spanish,Biology,Logic,Biology,1603816331833,0.8215166666666667,forced_choice,3
1163,22162,22,NA,Graduated High School,1603815710231,44,female,german,Biology,Logic,Biology,1603815611314,1.6486166666666666,forced_choice,1
1163,5373,22,NA,Graduated High School,1603815710231,44,female,german,Mountains,Beach,Beach,1603815611314,1.6486166666666666,forced_choice,2
1163,2367,22,NA,Graduated High School,1603815710231,44,female,german,Metal,Jazz,Jazz,1603815611314,1.6486166666666666,forced_choice,3
1162,5600,21,NA,Graduated High School,1603814865457,44,male,"Italian, French",Metal,Jazz,Jazz,1603814753350,1.86845,forced_choice,1
1162,3244,21,NA,Graduated High School,1603814865457,44,male,"Italian, French",Biology,Logic,Logic,1603814753350,1.86845,forced_choice,2
1162,3086,21,NA,Graduated High School,1603814865457,44,male,"Italian, French",Mountains,Beach,Beach,1603814753350,1.86845,forced_choice,3
1161,8710,25,NA,Graduated High School,1603814850165,44,female,german,Biology,Logic,Biology,1603814806108,0.7342833333333333,forced_choice,1
1161,9470,25,NA,Graduated High School,1603814850165,44,female,german,Metal,Jazz,Metal,1603814806108,0.7342833333333333,forced_choice,2
1161,2191,25,NA,Graduated High School,1603814850165,44,female,german,Mountains,Beach,Mountains,1603814806108,0.7342833333333333,forced_choice,3
1160,6466,23,NA,Graduated High School,1603814820119,44,female,german,Biology,Logic,Logic,1603814778058,0.7010166666666666,forced_choice,1
1160,3019,23,NA,Graduated High School,1603814820119,44,female,german,Metal,Jazz,Jazz,1603814778058,0.7010166666666666,forced_choice,2
1160,3696,23,NA,Graduated High School,1603814820119,44,female,german,Mountains,Beach,Beach,1603814778058,0.7010166666666666,forced_choice,3
1159,4678,20,NA,Graduated High School,1603814192917,44,male,german,Metal,Jazz,Jazz,1603814109519,1.3899666666666666,forced_choice,1
1159,3211,20,NA,Graduated High School,1603814192917,44,male,german,Biology,Logic,Logic,1603814109519,1.3899666666666666,forced_choice,2
1159,8768,20,NA,Graduated High School,1603814192917,44,male,german,Mountains,Beach,Beach,1603814109519,1.3899666666666666,forced_choice,3
1158,15439,26,NA,Graduated High School,1603813995704,44,female,German,Metal,Jazz,Jazz,1603813935632,1.0012,forced_choice,1
1158,4055,26,NA,Graduated High School,1603813995704,44,female,German,Mountains,Beach,Beach,1603813935632,1.0012,forced_choice,2
1158,4277,26,NA,Graduated High School,1603813995704,44,female,German,Biology,Logic,Biology,1603813935632,1.0012,forced_choice,3
1157,4081,21,NA,Graduated High School,1603813887235,44,male,German,Metal,Jazz,Jazz,1603813856256,0.5163166666666666,forced_choice,1
1157,2975,21,NA,Graduated High School,1603813887235,44,male,German,Mountains,Beach,Beach,1603813856256,0.5163166666666666,forced_choice,2
1157,3514,21,NA,Graduated High School,1603813887235,44,male,German,Biology,Logic,Logic,1603813856256,0.5163166666666666,forced_choice,3
1156,2999,20,NA,Graduated High School,1603812908249,44,female,german,Biology,Logic,Logic,1603812871559,0.6115,forced_choice,1
1156,3072,20,NA,Graduated High School,1603812908249,44,female,german,Metal,Jazz,Jazz,1603812871559,0.6115,forced_choice,2
1156,1677,20,NA,Graduated High School,1603812908249,44,female,german,Mountains,Beach,Mountains,1603812871559,0.6115,forced_choice,3
1155,4390,21,NA,Graduated High School,1603812902844,44,male,erman,Metal,Jazz,Jazz,1603812854916,0.7988,forced_choice,1
1155,7261,21,NA,Graduated High School,1603812902844,44,male,erman,Biology,Logic,Logic,1603812854916,0.7988,forced_choice,2
1155,3689,21,NA,Graduated High School,1603812902844,44,male,erman,Mountains,Beach,Mountains,1603812854916,0.7988,forced_choice,3
1154,11252,27,NA,Higher Degree,1603812610930,44,female,"Russian, English",Biology,Logic,Biology,1603812556377,0.9092166666666667,forced_choice,1
1154,4389,27,NA,Higher Degree,1603812610930,44,female,"Russian, English",Mountains,Beach,Mountains,1603812556377,0.9092166666666667,forced_choice,2
1154,3753,27,NA,Higher Degree,1603812610930,44,female,"Russian, English",Metal,Jazz,Jazz,1603812556377,0.9092166666666667,forced_choice,3
1153,13713,20,NA,Graduated High School,1603812057266,44,female,German,Mountains,Beach,Mountains,1603811960893,1.6062166666666666,forced_choice,1
1153,6638,20,NA,Graduated High School,1603812057266,44,female,German,Biology,Logic,Biology,1603811960893,1.6062166666666666,forced_choice,2
1153,7675,20,NA,Graduated High School,1603812057266,44,female,German,Metal,Jazz,Jazz,1603811960893,1.6062166666666666,forced_choice,3
1151,6343,19,NA,Graduated High School,1603811846058,44,female,German,Metal,Jazz,Jazz,1603811784939,1.01865,forced_choice,1
1151,3071,19,NA,Graduated High School,1603811846058,44,female,German,Mountains,Beach,Mountains,1603811784939,1.01865,forced_choice,2
1151,5385,19,NA,Graduated High School,1603811846058,44,female,German,Biology,Logic,Logic,1603811784939,1.01865,forced_choice,3
1150,5114,20,NA,Graduated High School,1603811133607,44,female,German,Biology,Logic,Biology,1603811084334,0.8212166666666667,forced_choice,1
1150,7394,20,NA,Graduated High School,1603811133607,44,female,German,Mountains,Beach,Mountains,1603811084334,0.8212166666666667,forced_choice,2
1150,3221,20,NA,Graduated High School,1603811133607,44,female,German,Metal,Jazz,Jazz,1603811084334,0.8212166666666667,forced_choice,3
1149,7987,NA,NA,Higher Degree,1603809915929,44,female,NA,Mountains,Beach,Beach,1603808883970,17.199316666666668,forced_choice,1
1149,8189,NA,NA,Higher Degree,1603809915929,44,female,NA,Metal,Jazz,Jazz,1603808883970,17.199316666666668,forced_choice,2
1149,11792,NA,NA,Higher Degree,1603809915929,44,female,NA,Biology,Logic,Logic,1603808883970,17.199316666666668,forced_choice,3
1147,5921,21,NA,Graduated High School,1603809397673,44,female,German,Mountains,Beach,Mountains,1603809362716,0.5826166666666667,forced_choice,1
1147,4831,21,NA,Graduated High School,1603809397673,44,female,German,Biology,Logic,Logic,1603809362716,0.5826166666666667,forced_choice,2
1147,2299,21,NA,Graduated High School,1603809397673,44,female,German,Metal,Jazz,Jazz,1603809362716,0.5826166666666667,forced_choice,3
1146,2967,20,NA,Graduated High School,1603809356143,44,male,NA,Metal,Jazz,Jazz,1603809323098,0.55075,forced_choice,1
1146,5887,20,NA,Graduated High School,1603809356143,44,male,NA,Mountains,Beach,Beach,1603809323098,0.55075,forced_choice,2
1146,4760,20,NA,Graduated High School,1603809356143,44,male,NA,Biology,Logic,Biology,1603809323098,0.55075,forced_choice,3
1145,6212,NA,NA,NA,1603809038673,44,NA,NA,Metal,Jazz,Jazz,1603809006340,0.5388833333333334,forced_choice,1
1145,4330,NA,NA,NA,1603809038673,44,NA,NA,Mountains,Beach,Beach,1603809006340,0.5388833333333334,forced_choice,2
1145,2191,NA,NA,NA,1603809038673,44,NA,NA,Biology,Logic,Biology,1603809006340,0.5388833333333334,forced_choice,3
1144,4972,20,NA,Graduated High School,1603808845689,44,male,German,Biology,Logic,Biology,1603808767921,1.2961333333333334,forced_choice,1
1144,3898,20,NA,Graduated High School,1603808845689,44,male,German,Metal,Jazz,Jazz,1603808767921,1.2961333333333334,forced_choice,2
1144,7812,20,NA,Graduated High School,1603808845689,44,male,German,Mountains,Beach,Mountains,1603808767921,1.2961333333333334,forced_choice,3
1143,8238,19,Thank you,Graduated High School,1603808761716,44,male,german,Biology,Logic,Logic,1603808717815,0.7316833333333334,forced_choice,1
1143,8703,19,Thank you,Graduated High School,1603808761716,44,male,german,Mountains,Beach,Mountains,1603808717815,0.7316833333333334,forced_choice,2
1143,1992,19,Thank you,Graduated High School,1603808761716,44,male,german,Metal,Jazz,Jazz,1603808717815,0.7316833333333334,forced_choice,3
1141,5125,24,I guess college = Abitur,Graduated College,1603808624016,44,female,"German, Danish",Metal,Jazz,Metal,1603808457637,2.7729833333333334,forced_choice,1
1141,4684,24,I guess college = Abitur,Graduated College,1603808624016,44,female,"German, Danish",Biology,Logic,Biology,1603808457637,2.7729833333333334,forced_choice,2
1141,2959,24,I guess college = Abitur,Graduated College,1603808624016,44,female,"German, Danish",Mountains,Beach,Beach,1603808457637,2.7729833333333334,forced_choice,3
1140,10510,21,NA,Graduated High School,1603808435527,44,female,German,Biology,Logic,Logic,1603808381402,0.9020833333333333,forced_choice,1
1140,5777,21,NA,Graduated High School,1603808435527,44,female,German,Metal,Jazz,Jazz,1603808381402,0.9020833333333333,forced_choice,2
1140,4866,21,NA,Graduated High School,1603808435527,44,female,German,Mountains,Beach,Beach,1603808381402,0.9020833333333333,forced_choice,3
1139,4526,21,NA,Graduated College,1603808401606,44,female,german,Mountains,Beach,Beach,1603808352837,0.8128166666666666,forced_choice,1
1139,3871,21,NA,Graduated College,1603808401606,44,female,german,Metal,Jazz,Jazz,1603808352837,0.8128166666666666,forced_choice,2
1139,3627,21,NA,Graduated College,1603808401606,44,female,german,Biology,Logic,Logic,1603808352837,0.8128166666666666,forced_choice,3
1138,6175,27,NA,Higher Degree,1603808383377,44,female,"Hokkien, Mandarin",Biology,Logic,Logic,1603808212344,2.85055,forced_choice,1
1138,4615,27,NA,Higher Degree,1603808383377,44,female,"Hokkien, Mandarin",Mountains,Beach,Beach,1603808212344,2.85055,forced_choice,2
1138,7320,27,NA,Higher Degree,1603808383377,44,female,"Hokkien, Mandarin",Metal,Jazz,Jazz,1603808212344,2.85055,forced_choice,3
1137,8658,19,I might answer differently to some questions depending on my mood,Graduated High School,1603807817616,44,male,German,Biology,Logic,Logic,1603807732708,1.4151333333333334,forced_choice,1
1137,4461,19,I might answer differently to some questions depending on my mood,Graduated High School,1603807817616,44,male,German,Mountains,Beach,Mountains,1603807732708,1.4151333333333334,forced_choice,2
1137,4934,19,I might answer differently to some questions depending on my mood,Graduated High School,1603807817616,44,male,German,Metal,Jazz,Jazz,1603807732708,1.4151333333333334,forced_choice,3
1136,7181,20,NA,Graduated High School,1603807627748,44,male,"German, Italian",Metal,Jazz,Jazz,1603807509623,1.96875,forced_choice,1
1136,40468,20,NA,Graduated High School,1603807627748,44,male,"German, Italian",Biology,Logic,Biology,1603807509623,1.96875,forced_choice,2
1136,4396,20,NA,Graduated High School,1603807627748,44,male,"German, Italian",Mountains,Beach,Mountains,1603807509623,1.96875,forced_choice,3
1135,12428,20,NA,Graduated High School,1603807451620,44,male,German,Biology,Logic,Biology,1603807389940,1.028,forced_choice,1
1135,6578,20,NA,Graduated High School,1603807451620,44,male,German,Mountains,Beach,Beach,1603807389940,1.028,forced_choice,2
1135,4597,20,NA,Graduated High School,1603807451620,44,male,German,Metal,Jazz,Jazz,1603807389940,1.028,forced_choice,3
1134,4149,20,NA,Graduated High School,1603807094448,44,male,German,Biology,Logic,Logic,1603806961742,2.2117666666666667,forced_choice,1
1134,3059,20,NA,Graduated High School,1603807094448,44,male,German,Mountains,Beach,Beach,1603806961742,2.2117666666666667,forced_choice,2
1134,1159,20,NA,Graduated High School,1603807094448,44,male,German,Metal,Jazz,Metal,1603806961742,2.2117666666666667,forced_choice,3
1133,3968,22,NA,Graduated College,1603806453898,44,female,german,Mountains,Beach,Beach,1603806417699,0.6033166666666666,forced_choice,1
1133,3636,22,NA,Graduated College,1603806453898,44,female,german,Biology,Logic,Logic,1603806417699,0.6033166666666666,forced_choice,2
1133,2463,22,NA,Graduated College,1603806453898,44,female,german,Metal,Jazz,Jazz,1603806417699,0.6033166666666666,forced_choice,3
1132,6771,NA,NA,NA,1603806235099,44,NA,NA,Mountains,Beach,Mountains,1603806200523,0.5762666666666667,forced_choice,1
1132,5510,NA,NA,NA,1603806235099,44,NA,NA,Metal,Jazz,Jazz,1603806200523,0.5762666666666667,forced_choice,2
1132,3608,NA,NA,NA,1603806235099,44,NA,NA,Biology,Logic,Biology,1603806200523,0.5762666666666667,forced_choice,3
1131,13029,23,NA,Graduated High School,1603805880545,44,male,german,Mountains,Beach,Mountains,1603805839001,0.6924,forced_choice,1
1131,4220,23,NA,Graduated High School,1603805880545,44,male,german,Biology,Logic,Logic,1603805839001,0.6924,forced_choice,2
1131,3908,23,NA,Graduated High School,1603805880545,44,male,german,Metal,Jazz,Jazz,1603805839001,0.6924,forced_choice,3
1130,6963,26,NA,Graduated College,1603805813048,44,male,German,Mountains,Beach,Beach,1603805753928,0.9853333333333333,forced_choice,1
1130,2329,26,NA,Graduated College,1603805813048,44,male,German,Metal,Jazz,Metal,1603805753928,0.9853333333333333,forced_choice,2
1130,9395,26,NA,Graduated College,1603805813048,44,male,German,Biology,Logic,Logic,1603805753928,0.9853333333333333,forced_choice,3
1128,5401,23,hi :),Graduated High School,1603805554860,44,male,German,Metal,Jazz,Metal,1603805487250,1.1268333333333334,forced_choice,1
1128,3409,23,hi :),Graduated High School,1603805554860,44,male,German,Biology,Logic,Biology,1603805487250,1.1268333333333334,forced_choice,2
1128,4533,23,hi :),Graduated High School,1603805554860,44,male,German,Mountains,Beach,Beach,1603805487250,1.1268333333333334,forced_choice,3
1127,7058,20,Could be longer,Graduated High School,1603805237399,44,male,"German, Spanish",Biology,Logic,Biology,1603805111598,2.0966833333333335,forced_choice,1
1127,1806,20,Could be longer,Graduated High School,1603805237399,44,male,"German, Spanish",Metal,Jazz,Jazz,1603805111598,2.0966833333333335,forced_choice,2
1127,10705,20,Could be longer,Graduated High School,1603805237399,44,male,"German, Spanish",Mountains,Beach,Beach,1603805111598,2.0966833333333335,forced_choice,3
1126,4063,23,NA,Graduated High School,1603804982143,44,male,German,Biology,Logic,Logic,1603804935514,0.77715,forced_choice,1
1126,2324,23,NA,Graduated High School,1603804982143,44,male,German,Mountains,Beach,Mountains,1603804935514,0.77715,forced_choice,2
1126,3858,23,NA,Graduated High School,1603804982143,44,male,German,Metal,Jazz,Jazz,1603804935514,0.77715,forced_choice,3
1125,4723,20,NA,Graduated High School,1603804551230,44,male,German,Mountains,Beach,Mountains,1603804500548,0.8447,forced_choice,1
1125,3983,20,NA,Graduated High School,1603804551230,44,male,German,Biology,Logic,Logic,1603804500548,0.8447,forced_choice,2
1125,10652,20,NA,Graduated High School,1603804551230,44,male,German,Metal,Jazz,Metal,1603804500548,0.8447,forced_choice,3
1124,3417,24,NA,Graduated College,1603800866129,44,male,portuguese,Biology,Logic,Biology,1603800711350,2.57965,forced_choice,1
1124,2877,24,NA,Graduated College,1603800866129,44,male,portuguese,Mountains,Beach,Beach,1603800711350,2.57965,forced_choice,2
1124,2132,24,NA,Graduated College,1603800866129,44,male,portuguese,Metal,Jazz,Metal,1603800711350,2.57965,forced_choice,3
1123,8386,19,NA,Graduated High School,1603804417479,44,female,German,Mountains,Beach,Beach,1603804378015,0.6577333333333333,forced_choice,1
1123,2386,19,NA,Graduated High School,1603804417479,44,female,German,Biology,Logic,Logic,1603804378015,0.6577333333333333,forced_choice,2
1123,5344,19,NA,Graduated High School,1603804417479,44,female,German,Metal,Jazz,Jazz,1603804378015,0.6577333333333333,forced_choice,3
1122,3728,20,NA,Graduated High School,1603804360759,44,female,German,Metal,Jazz,Jazz,1603804290552,1.1701166666666667,forced_choice,1
1122,4186,20,NA,Graduated High School,1603804360759,44,female,German,Biology,Logic,Biology,1603804290552,1.1701166666666667,forced_choice,2
1122,3923,20,NA,Graduated High School,1603804360759,44,female,German,Mountains,Beach,Mountains,1603804290552,1.1701166666666667,forced_choice,3
1120,4216,24,NA,Graduated High School,1603803979270,44,female,"Russian, Georgian, German",Mountains,Beach,Beach,1603803892720,1.4425,forced_choice,1
1120,2113,24,NA,Graduated High School,1603803979270,44,female,"Russian, Georgian, German",Metal,Jazz,Jazz,1603803892720,1.4425,forced_choice,2
1120,3977,24,NA,Graduated High School,1603803979270,44,female,"Russian, Georgian, German",Biology,Logic,Biology,1603803892720,1.4425,forced_choice,3
1119,3482,24,NA,Graduated High School,1603803900793,44,male,German,Biology,Logic,Logic,1603803869795,0.5166333333333334,forced_choice,1
1119,2635,24,NA,Graduated High School,1603803900793,44,male,German,Mountains,Beach,Mountains,1603803869795,0.5166333333333334,forced_choice,2
1119,1472,24,NA,Graduated High School,1603803900793,44,male,German,Metal,Jazz,Jazz,1603803869795,0.5166333333333334,forced_choice,3
1118,7077,24,NA,Graduated High School,1603803872394,44,male,german,Mountains,Beach,Mountains,1603803844589,0.46341666666666664,forced_choice,1
1118,5073,24,NA,Graduated High School,1603803872394,44,male,german,Biology,Logic,Logic,1603803844589,0.46341666666666664,forced_choice,2
1118,1411,24,NA,Graduated High School,1603803872394,44,male,german,Metal,Jazz,Jazz,1603803844589,0.46341666666666664,forced_choice,3
1117,6183,22,NA,Higher Degree,1603803867075,44,female,russian,Mountains,Beach,Beach,1603803564191,5.048066666666666,forced_choice,1
1117,5455,22,NA,Higher Degree,1603803867075,44,female,russian,Metal,Jazz,Jazz,1603803564191,5.048066666666666,forced_choice,2
1117,6388,22,NA,Higher Degree,1603803867075,44,female,russian,Biology,Logic,Logic,1603803564191,5.048066666666666,forced_choice,3
1116,5775,32,NA,Graduated College,1603803815066,44,male,Farsi,Metal,Jazz,Jazz,1603803776866,0.6366666666666667,forced_choice,1
1116,5272,32,NA,Graduated College,1603803815066,44,male,Farsi,Biology,Logic,Logic,1603803776866,0.6366666666666667,forced_choice,2
1116,2848,32,NA,Graduated College,1603803815066,44,male,Farsi,Mountains,Beach,Beach,1603803776866,0.6366666666666667,forced_choice,3
1115,6394,19,NA,Graduated High School,1603803802562,44,female,serbian,Biology,Logic,Biology,1603803763380,0.6530333333333334,forced_choice,1
1115,4813,19,NA,Graduated High School,1603803802562,44,female,serbian,Metal,Jazz,Metal,1603803763380,0.6530333333333334,forced_choice,2
1115,7354,19,NA,Graduated High School,1603803802562,44,female,serbian,Mountains,Beach,Mountains,1603803763380,0.6530333333333334,forced_choice,3
1114,4770,23,NA,Graduated High School,1603803624642,44,male,German,Mountains,Beach,Mountains,1603803575993,0.8108166666666666,forced_choice,1
1114,5708,23,NA,Graduated High School,1603803624642,44,male,German,Biology,Logic,Biology,1603803575993,0.8108166666666666,forced_choice,2
1114,4402,23,NA,Graduated High School,1603803624642,44,male,German,Metal,Jazz,Jazz,1603803575993,0.8108166666666666,forced_choice,3
1113,5572,20,Level of Education: Abitur,NA,1603803494777,44,female,German,Biology,Logic,Logic,1603803364193,2.1764,forced_choice,1
1113,3143,20,Level of Education: Abitur,NA,1603803494777,44,female,German,Metal,Jazz,Jazz,1603803364193,2.1764,forced_choice,2
1113,3694,20,Level of Education: Abitur,NA,1603803494777,44,female,German,Mountains,Beach,Mountains,1603803364193,2.1764,forced_choice,3
1112,4976,20,NA,Graduated High School,1603803387889,44,female,German,Mountains,Beach,Mountains,1603803359128,0.47935,forced_choice,1
1112,1374,20,NA,Graduated High School,1603803387889,44,female,German,Metal,Jazz,Metal,1603803359128,0.47935,forced_choice,2
1112,1840,20,NA,Graduated High School,1603803387889,44,female,German,Biology,Logic,Biology,1603803359128,0.47935,forced_choice,3
1111,6405,22,NA,Graduated College,1603803108727,44,male,"Chinese, German",Mountains,Beach,Mountains,1603803063542,0.7530833333333333,forced_choice,1
1111,8214,22,NA,Graduated College,1603803108727,44,male,"Chinese, German",Biology,Logic,Logic,1603803063542,0.7530833333333333,forced_choice,2
1111,3522,22,NA,Graduated College,1603803108727,44,male,"Chinese, German",Metal,Jazz,Metal,1603803063542,0.7530833333333333,forced_choice,3
1110,3455,25,NA,Graduated College,1603803052858,44,female,Turkish,Biology,Logic,Logic,1603802998690,0.9028,forced_choice,1
1110,2539,25,NA,Graduated College,1603803052858,44,female,Turkish,Mountains,Beach,Beach,1603802998690,0.9028,forced_choice,2
1110,4542,25,NA,Graduated College,1603803052858,44,female,Turkish,Metal,Jazz,Jazz,1603802998690,0.9028,forced_choice,3
1109,5676,19,NA,Graduated High School,1603802983569,44,male,"german,thai",Metal,Jazz,Jazz,1603802923687,0.9980333333333333,forced_choice,1
1109,11793,19,NA,Graduated High School,1603802983569,44,male,"german,thai",Mountains,Beach,Beach,1603802923687,0.9980333333333333,forced_choice,2
1109,5038,19,NA,Graduated High School,1603802983569,44,male,"german,thai",Biology,Logic,Biology,1603802923687,0.9980333333333333,forced_choice,3
1108,5236,26,NA,Graduated High School,1603802935886,44,male,German,Biology,Logic,Biology,1603802893541,0.70575,forced_choice,1
1108,4342,26,NA,Graduated High School,1603802935886,44,male,German,Mountains,Beach,Mountains,1603802893541,0.70575,forced_choice,2
1108,2584,26,NA,Graduated High School,1603802935886,44,male,German,Metal,Jazz,Jazz,1603802893541,0.70575,forced_choice,3
1107,8710,21,NA,Graduated High School,1603802936317,44,female,german,Biology,Logic,Biology,1603802486658,7.494316666666666,forced_choice,1
1107,1942,21,NA,Graduated High School,1603802936317,44,female,german,Mountains,Beach,Mountains,1603802486658,7.494316666666666,forced_choice,2
1107,2882,21,NA,Graduated High School,1603802936317,44,female,german,Metal,Jazz,Metal,1603802486658,7.494316666666666,forced_choice,3
1106,8473,19,NA,Graduated High School,1603802871910,44,male,German,Metal,Jazz,Metal,1603802810848,1.0177,forced_choice,1
1106,6628,19,NA,Graduated High School,1603802871910,44,male,German,Mountains,Beach,Beach,1603802810848,1.0177,forced_choice,2
1106,4837,19,NA,Graduated High School,1603802871910,44,male,German,Biology,Logic,Biology,1603802810848,1.0177,forced_choice,3
1105,3595,21,NA,Graduated High School,1603802842725,44,female,german,Metal,Jazz,Jazz,1603802789074,0.8941833333333333,forced_choice,1
1105,4166,21,NA,Graduated High School,1603802842725,44,female,german,Biology,Logic,Logic,1603802789074,0.8941833333333333,forced_choice,2
1105,3151,21,NA,Graduated High School,1603802842725,44,female,german,Mountains,Beach,Beach,1603802789074,0.8941833333333333,forced_choice,3
1104,13182,21,NA,Graduated High School,1603802770876,44,male,German,Biology,Logic,Biology,1603802693432,1.2907333333333333,forced_choice,1
1104,4455,21,NA,Graduated High School,1603802770876,44,male,German,Mountains,Beach,Beach,1603802693432,1.2907333333333333,forced_choice,2
1104,1802,21,NA,Graduated High School,1603802770876,44,male,German,Metal,Jazz,Metal,1603802693432,1.2907333333333333,forced_choice,3
1103,5107,18,NA,Graduated College,1603802691361,44,male,NA,Mountains,Beach,Mountains,1603802655069,0.6048666666666667,forced_choice,1
1103,4303,18,NA,Graduated College,1603802691361,44,male,NA,Metal,Jazz,Metal,1603802655069,0.6048666666666667,forced_choice,2
1103,4853,18,NA,Graduated College,1603802691361,44,male,NA,Biology,Logic,Logic,1603802655069,0.6048666666666667,forced_choice,3
1102,4692,25,NA,Graduated College,1603802666960,44,male,"Urdu, English, Gujrati, Memoni",Mountains,Beach,Mountains,1603802091882,9.584633333333333,forced_choice,1
1102,5233,25,NA,Graduated College,1603802666960,44,male,"Urdu, English, Gujrati, Memoni",Metal,Jazz,Jazz,1603802091882,9.584633333333333,forced_choice,2
1102,33502,25,NA,Graduated College,1603802666960,44,male,"Urdu, English, Gujrati, Memoni",Biology,Logic,Logic,1603802091882,9.584633333333333,forced_choice,3
1101,5861,30,NA,Higher Degree,1603802662963,44,female,NA,Biology,Logic,Biology,1603802629894,0.55115,forced_choice,1
1101,2350,30,NA,Higher Degree,1603802662963,44,female,NA,Metal,Jazz,Jazz,1603802629894,0.55115,forced_choice,2
1101,2004,30,NA,Higher Degree,1603802662963,44,female,NA,Mountains,Beach,Beach,1603802629894,0.55115,forced_choice,3
1100,2910,26,NA,Graduated High School,1603802655737,44,male,"German, Portuguese",Metal,Jazz,Jazz,1603802620763,0.5829,forced_choice,1
1100,4415,26,NA,Graduated High School,1603802655737,44,male,"German, Portuguese",Biology,Logic,Logic,1603802620763,0.5829,forced_choice,2
1100,2555,26,NA,Graduated High School,1603802655737,44,male,"German, Portuguese",Mountains,Beach,Mountains,1603802620763,0.5829,forced_choice,3
1099,34099,NA,NA,NA,1603802622612,44,NA,NA,Mountains,Beach,Beach,1603802548559,1.2342166666666667,forced_choice,1
1099,4210,NA,NA,NA,1603802622612,44,NA,NA,Biology,Logic,Logic,1603802548559,1.2342166666666667,forced_choice,2
1099,13407,NA,NA,NA,1603802622612,44,NA,NA,Metal,Jazz,Metal,1603802548559,1.2342166666666667,forced_choice,3
1098,4819,18,NA,Graduated High School,1603802493923,44,female,German,Biology,Logic,Biology,1603802446403,0.792,forced_choice,1
1098,3994,18,NA,Graduated High School,1603802493923,44,female,German,Mountains,Beach,Beach,1603802446403,0.792,forced_choice,2
1098,1794,18,NA,Graduated High School,1603802493923,44,female,German,Metal,Jazz,Metal,1603802446403,0.792,forced_choice,3
1097,3682,NA,NA,Graduated College,1603802459086,44,male,German,Metal,Jazz,Jazz,1603802417883,0.6867166666666666,forced_choice,1
1097,3029,NA,NA,Graduated College,1603802459086,44,male,German,Biology,Logic,Logic,1603802417883,0.6867166666666666,forced_choice,2
1097,1828,NA,NA,Graduated College,1603802459086,44,male,German,Mountains,Beach,Mountains,1603802417883,0.6867166666666666,forced_choice,3
1096,3487,NA,NA,NA,1603802202104,44,NA,NA,Biology,Logic,Logic,1603802180631,0.35788333333333333,forced_choice,1
1096,2596,NA,NA,NA,1603802202104,44,NA,NA,Mountains,Beach,Beach,1603802180631,0.35788333333333333,forced_choice,2
1096,3198,NA,NA,NA,1603802202104,44,NA,NA,Metal,Jazz,Jazz,1603802180631,0.35788333333333333,forced_choice,3
1095,6508,19,NA,Graduated High School,1603802190060,44,female,German,Metal,Jazz,Jazz,1603802155565,0.5749166666666666,forced_choice,1
1095,1825,19,NA,Graduated High School,1603802190060,44,female,German,Mountains,Beach,Beach,1603802155565,0.5749166666666666,forced_choice,2
1095,1366,19,NA,Graduated High School,1603802190060,44,female,German,Biology,Logic,Logic,1603802155565,0.5749166666666666,forced_choice,3
1094,10754,22,NA,Graduated High School,1603802155471,44,male,"German, Spanish",Biology,Logic,Logic,1603802111221,0.7375,forced_choice,1
1094,6252,22,NA,Graduated High School,1603802155471,44,male,"German, Spanish",Mountains,Beach,Mountains,1603802111221,0.7375,forced_choice,2
1094,2111,22,NA,Graduated High School,1603802155471,44,male,"German, Spanish",Metal,Jazz,Jazz,1603802111221,0.7375,forced_choice,3
1093,3101,23,NA,Graduated College,1603802137105,44,male,German,Biology,Logic,Logic,1603802110848,0.43761666666666665,forced_choice,1
1093,3361,23,NA,Graduated College,1603802137105,44,male,German,Metal,Jazz,Jazz,1603802110848,0.43761666666666665,forced_choice,2
1093,3102,23,NA,Graduated College,1603802137105,44,male,German,Mountains,Beach,Mountains,1603802110848,0.43761666666666665,forced_choice,3
1092,8489,29,NA,Graduated College,1603802126076,44,male,Russian,Biology,Logic,Logic,1603802066451,0.99375,forced_choice,1
1092,6171,29,NA,Graduated College,1603802126076,44,male,Russian,Mountains,Beach,Beach,1603802066451,0.99375,forced_choice,2
1092,1596,29,NA,Graduated College,1603802126076,44,male,Russian,Metal,Jazz,Jazz,1603802066451,0.99375,forced_choice,3
