submission_id,QUD,RT,age,comments,condition,correct,education,endTime,experiment_id,gender,languages,option1,option2,question,response,startDate,startTime,timeSpent,trial_name,trial_number,type,vignette
1232,,4768,20,,none,true,Graduated High School,1606658679151,42,female,german,FALSE,TRUE,"William Shakespeare was an English poet, playwright and actor, regarded as the greatest writer in the English language.",TRUE,Sun Nov 29 2020 15:01:36 GMT+0100 (Mitteleuropäische Normalzeit),1606658496481,3.0445,practice_trials,1,practice,undefined
1232,,2602,20,,none,false,Graduated High School,1606658679151,42,female,german,FALSE,TRUE,World War II was a global war that lasted from 1914 to 1918.,FALSE,Sun Nov 29 2020 15:01:36 GMT+0100 (Mitteleuropäische Normalzeit),1606658496481,3.0445,practice_trials,2,practice,undefined
1232,,4734,20,,none,true,Graduated High School,1606658679151,42,female,german,FALSE,TRUE,Normally there are 32 teeth in the adult human body.,TRUE,Sun Nov 29 2020 15:01:36 GMT+0100 (Mitteleuropäische Normalzeit),1606658496481,3.0445,practice_trials,3,practice,undefined
1232,,2062,20,,none,false,Graduated High School,1606658679151,42,female,german,FALSE,TRUE,Spain is a country in Asia.,FALSE,Sun Nov 29 2020 15:01:36 GMT+0100 (Mitteleuropäische Normalzeit),1606658496481,3.0445,practice_trials,4,practice,undefined
1232,,4010,20,,none,true,Graduated High School,1606658679151,42,female,german,FALSE,TRUE,Alexander Bell invented the telephone.,TRUE,Sun Nov 29 2020 15:01:36 GMT+0100 (Mitteleuropäische Normalzeit),1606658496481,3.0445,practice_trials,5,practice,undefined
1232,,3720,20,,none,true,Graduated High School,1606658679151,42,female,german,FALSE,TRUE,The Republic of South Africa is located in the continent of Africa.,TRUE,Sun Nov 29 2020 15:01:36 GMT+0100 (Mitteleuropäische Normalzeit),1606658496481,3.0445,main_trials,1,filler,none
1232,,4086,20,,none,false,Graduated High School,1606658679151,42,female,german,FALSE,TRUE,Elvis Presley is one of the most popular musicians in this decade.,FALSE,Sun Nov 29 2020 15:01:36 GMT+0100 (Mitteleuropäische Normalzeit),1606658496481,3.0445,main_trials,2,filler,none
1232,,16519,20,,0,false,Graduated High School,1606658679151,42,female,german,FALSE,TRUE,The Pope’s wife is a lawyer.,TRUE,Sun Nov 29 2020 15:01:36 GMT+0100 (Mitteleuropäische Normalzeit),1606658496481,3.0445,main_trials,3,main,3
1232,,9623,20,,none,true,Graduated High School,1606658679151,42,female,german,FALSE,TRUE,The Sahara desert in Africa is the largest desert in the world.,TRUE,Sun Nov 29 2020 15:01:36 GMT+0100 (Mitteleuropäische Normalzeit),1606658496481,3.0445,main_trials,4,filler,none
1232,,4845,20,,none,true,Graduated High School,1606658679151,42,female,german,FALSE,TRUE,The Grand Canyon in Arizona (USA) is the largest canyon in the world.,TRUE,Sun Nov 29 2020 15:01:36 GMT+0100 (Mitteleuropäische Normalzeit),1606658496481,3.0445,main_trials,5,filler,none
1232,,1877,20,,none,true,Graduated High School,1606658679151,42,female,german,FALSE,TRUE,Mount Everest is the highest mountain on Earth.,TRUE,Sun Nov 29 2020 15:01:36 GMT+0100 (Mitteleuropäische Normalzeit),1606658496481,3.0445,main_trials,6,filler,none
1232,,10454,20,,9,false,Graduated High School,1606658679151,42,female,german,FALSE,TRUE,"The Belgian rainforest, it is not the favorite nature spot of Donald Trump.",TRUE,Sun Nov 29 2020 15:01:36 GMT+0100 (Mitteleuropäische Normalzeit),1606658496481,3.0445,main_trials,7,main,4
1232,,4209,20,,none,true,Graduated High School,1606658679151,42,female,german,FALSE,TRUE,"Egypt is famous for the pyramids, the pharaohs and the Nile River.",TRUE,Sun Nov 29 2020 15:01:36 GMT+0100 (Mitteleuropäische Normalzeit),1606658496481,3.0445,main_trials,8,filler,none
1232,,5685,20,,10,false,Graduated High School,1606658679151,42,female,german,FALSE,TRUE,"Leipzig, it is not threatened by the volcanoes of Germany.",TRUE,Sun Nov 29 2020 15:01:36 GMT+0100 (Mitteleuropäische Normalzeit),1606658496481,3.0445,main_trials,9,main,5
1232,,10530,20,,none,true,Graduated High School,1606658679151,42,female,german,FALSE,TRUE,Earth is the third planet from the sun.,TRUE,Sun Nov 29 2020 15:01:36 GMT+0100 (Mitteleuropäische Normalzeit),1606658496481,3.0445,main_trials,10,filler,none
1232,,2660,20,,none,true,Graduated High School,1606658679151,42,female,german,FALSE,TRUE,The Pope is currently not married.,TRUE,Sun Nov 29 2020 15:01:36 GMT+0100 (Mitteleuropäische Normalzeit),1606658496481,3.0445,main_trials,11,special,3
1232,,4927,20,,none,true,Graduated High School,1606658679151,42,female,german,FALSE,TRUE,The United Nations (UN) is an intergovernmental organization tasked to promote international cooperation and to create and maintain international order.,TRUE,Sun Nov 29 2020 15:01:36 GMT+0100 (Mitteleuropäische Normalzeit),1606658496481,3.0445,main_trials,12,filler,none
1232,,3682,20,,6,false,Graduated High School,1606658679151,42,female,german,FALSE,TRUE,The Emperor of Canada isn’t fond of sushi.,TRUE,Sun Nov 29 2020 15:01:36 GMT+0100 (Mitteleuropäische Normalzeit),1606658496481,3.0445,main_trials,13,main,2
1232,,4924,20,,none,true,Graduated High School,1606658679151,42,female,german,FALSE,TRUE,One molecule of water (H2O) has two hydrogen atoms.,TRUE,Sun Nov 29 2020 15:01:36 GMT+0100 (Mitteleuropäische Normalzeit),1606658496481,3.0445,main_trials,14,filler,none
1232,,2171,20,,none,false,Graduated High School,1606658679151,42,female,german,FALSE,TRUE,London is the capital of Asia.,FALSE,Sun Nov 29 2020 15:01:36 GMT+0100 (Mitteleuropäische Normalzeit),1606658496481,3.0445,main_trials,15,filler,none
1232,,3546,20,,none,false,Graduated High School,1606658679151,42,female,german,FALSE,TRUE,Belgium has rainforests.,FALSE,Sun Nov 29 2020 15:01:36 GMT+0100 (Mitteleuropäische Normalzeit),1606658496481,3.0445,main_trials,16,special,4
1232,,5104,20,,none,false,Graduated High School,1606658679151,42,female,german,FALSE,TRUE,The Eiffel Tower is one of the most popular and frequently visited tourist attractions in Italy.,FALSE,Sun Nov 29 2020 15:01:36 GMT+0100 (Mitteleuropäische Normalzeit),1606658496481,3.0445,main_trials,17,filler,none
1232,,2285,20,,none,false,Graduated High School,1606658679151,42,female,german,FALSE,TRUE,Germany has volcanoes.,TRUE,Sun Nov 29 2020 15:01:36 GMT+0100 (Mitteleuropäische Normalzeit),1606658496481,3.0445,main_trials,18,special,5
1232,,19602,20,,1,false,Graduated High School,1606658679151,42,female,german,FALSE,TRUE,"France has a king, and he is bald.",TRUE,Sun Nov 29 2020 15:01:36 GMT+0100 (Mitteleuropäische Normalzeit),1606658496481,3.0445,main_trials,19,main,1
1232,,5348,20,,none,true,Graduated High School,1606658679151,42,female,german,FALSE,TRUE,The capital city of Russia is Moscow.,TRUE,Sun Nov 29 2020 15:01:36 GMT+0100 (Mitteleuropäische Normalzeit),1606658496481,3.0445,main_trials,20,filler,none
1232,,1990,20,,none,true,Graduated High School,1606658679151,42,female,german,FALSE,TRUE,Earth has a powerful magnetic field.,TRUE,Sun Nov 29 2020 15:01:36 GMT+0100 (Mitteleuropäische Normalzeit),1606658496481,3.0445,main_trials,21,filler,none
1232,,1522,20,,none,true,Graduated High School,1606658679151,42,female,german,FALSE,TRUE,Canada is a democracy.,TRUE,Sun Nov 29 2020 15:01:36 GMT+0100 (Mitteleuropäische Normalzeit),1606658496481,3.0445,main_trials,22,special,2
1232,,5274,20,,none,true,Graduated High School,1606658679151,42,female,german,FALSE,TRUE,Stephen William Hawking was a famous physicist.,TRUE,Sun Nov 29 2020 15:01:36 GMT+0100 (Mitteleuropäische Normalzeit),1606658496481,3.0445,main_trials,23,filler,none
1232,,1896,20,,none,false,Graduated High School,1606658679151,42,female,german,FALSE,TRUE,France has a king.,FALSE,Sun Nov 29 2020 15:01:36 GMT+0100 (Mitteleuropäische Normalzeit),1606658496481,3.0445,main_trials,24,special,1
1227,,2700,21,,none,false,Graduated High School,1604925148401,42,male,german,FALSE,TRUE,Spain is a country in Asia.,FALSE,Mon Nov 09 2020 13:29:07 GMT+0100 (Mitteleuropäische Normalzeit),1604924947923,3.3413,practice_trials,1,practice,undefined
1227,,5039,21,,none,false,Graduated High School,1604925148401,42,male,german,FALSE,TRUE,World War II was a global war that lasted from 1914 to 1918.,FALSE,Mon Nov 09 2020 13:29:07 GMT+0100 (Mitteleuropäische Normalzeit),1604924947923,3.3413,practice_trials,2,practice,undefined
1227,,13907,21,,none,true,Graduated High School,1604925148401,42,male,german,FALSE,TRUE,"William Shakespeare was an English poet, playwright and actor, regarded as the greatest writer in the English language.",FALSE,Mon Nov 09 2020 13:29:07 GMT+0100 (Mitteleuropäische Normalzeit),1604924947923,3.3413,practice_trials,3,practice,undefined
1227,,13569,21,,none,true,Graduated High School,1604925148401,42,male,german,FALSE,TRUE,Normally there are 32 teeth in the adult human body.,FALSE,Mon Nov 09 2020 13:29:07 GMT+0100 (Mitteleuropäische Normalzeit),1604924947923,3.3413,practice_trials,4,practice,undefined
1227,,4635,21,,none,true,Graduated High School,1604925148401,42,male,german,FALSE,TRUE,Alexander Bell invented the telephone.,TRUE,Mon Nov 09 2020 13:29:07 GMT+0100 (Mitteleuropäische Normalzeit),1604924947923,3.3413,practice_trials,5,practice,undefined
1227,,6031,21,,none,true,Graduated High School,1604925148401,42,male,german,FALSE,TRUE,Brazil is the largest country in South America.,TRUE,Mon Nov 09 2020 13:29:07 GMT+0100 (Mitteleuropäische Normalzeit),1604924947923,3.3413,main_trials,1,filler,none
1227,,4723,21,,none,true,Graduated High School,1604925148401,42,male,german,FALSE,TRUE,The capital city of Russia is Moscow.,TRUE,Mon Nov 09 2020 13:29:07 GMT+0100 (Mitteleuropäische Normalzeit),1604924947923,3.3413,main_trials,2,filler,none
1227,,4006,21,,9,false,Graduated High School,1604925148401,42,male,german,FALSE,TRUE,"The King of France, he did not call Emmanuel Macron last night.",FALSE,Mon Nov 09 2020 13:29:07 GMT+0100 (Mitteleuropäische Normalzeit),1604924947923,3.3413,main_trials,3,main,1
1227,,7741,21,,none,false,Graduated High School,1604925148401,42,male,german,FALSE,TRUE,Manchester United is a French football team based in Paris.,FALSE,Mon Nov 09 2020 13:29:07 GMT+0100 (Mitteleuropäische Normalzeit),1604924947923,3.3413,main_trials,4,filler,none
1227,,5041,21,,none,true,Graduated High School,1604925148401,42,male,german,FALSE,TRUE,The Sahara desert in Africa is the largest desert in the world.,TRUE,Mon Nov 09 2020 13:29:07 GMT+0100 (Mitteleuropäische Normalzeit),1604924947923,3.3413,main_trials,5,filler,none
1227,,6324,21,,none,true,Graduated High School,1604925148401,42,male,german,FALSE,TRUE,Steve Jobs was an American inventor and co-founder of Apple.,TRUE,Mon Nov 09 2020 13:29:07 GMT+0100 (Mitteleuropäische Normalzeit),1604924947923,3.3413,main_trials,6,filler,none
1227,,2211,21,,1,false,Graduated High School,1604925148401,42,male,german,FALSE,TRUE,"The Pope has a wife, and she is a lawyer.",FALSE,Mon Nov 09 2020 13:29:07 GMT+0100 (Mitteleuropäische Normalzeit),1604924947923,3.3413,main_trials,7,main,3
1227,,6473,21,,none,true,Graduated High School,1604925148401,42,male,german,FALSE,TRUE,"The simplest, functioning part of an organism is a cell.",TRUE,Mon Nov 09 2020 13:29:07 GMT+0100 (Mitteleuropäische Normalzeit),1604924947923,3.3413,main_trials,8,filler,none
1227,,5468,21,,0,false,Graduated High School,1604925148401,42,male,german,FALSE,TRUE,The volcanoes of Germany dominate the landscape.,FALSE,Mon Nov 09 2020 13:29:07 GMT+0100 (Mitteleuropäische Normalzeit),1604924947923,3.3413,main_trials,9,main,5
1227,,3067,21,,none,true,Graduated High School,1604925148401,42,male,german,FALSE,TRUE,Charles Darwin was a biologist known for his theory of evolution.,TRUE,Mon Nov 09 2020 13:29:07 GMT+0100 (Mitteleuropäische Normalzeit),1604924947923,3.3413,main_trials,10,filler,none
1227,,1725,21,,none,false,Graduated High School,1604925148401,42,male,german,FALSE,TRUE,France has a king.,FALSE,Mon Nov 09 2020 13:29:07 GMT+0100 (Mitteleuropäische Normalzeit),1604924947923,3.3413,main_trials,11,special,1
1227,,3734,21,,none,false,Graduated High School,1604925148401,42,male,german,FALSE,TRUE,James Bond is a spanish dancer from Madrid.,FALSE,Mon Nov 09 2020 13:29:07 GMT+0100 (Mitteleuropäische Normalzeit),1604924947923,3.3413,main_trials,12,filler,none
1227,,8564,21,,10,false,Graduated High School,1604925148401,42,male,german,FALSE,TRUE,"Donald Trump, his favorite nature spot is not the Belgian rainforest.",FALSE,Mon Nov 09 2020 13:29:07 GMT+0100 (Mitteleuropäische Normalzeit),1604924947923,3.3413,main_trials,13,main,4
1227,,7419,21,,none,true,Graduated High School,1604925148401,42,male,german,FALSE,TRUE,The capital city of Japan is Tokyo.,TRUE,Mon Nov 09 2020 13:29:07 GMT+0100 (Mitteleuropäische Normalzeit),1604924947923,3.3413,main_trials,14,filler,none
1227,,3886,21,,none,true,Graduated High School,1604925148401,42,male,german,FALSE,TRUE,Water boils at 100 degree C.,TRUE,Mon Nov 09 2020 13:29:07 GMT+0100 (Mitteleuropäische Normalzeit),1604924947923,3.3413,main_trials,15,filler,none
1227,,2633,21,,none,true,Graduated High School,1604925148401,42,male,german,FALSE,TRUE,The Pope is currently not married.,TRUE,Mon Nov 09 2020 13:29:07 GMT+0100 (Mitteleuropäische Normalzeit),1604924947923,3.3413,main_trials,16,special,3
1227,,7177,21,,none,true,Graduated High School,1604925148401,42,male,german,FALSE,TRUE,The Moon is an astronomical body that orbits planet Earth.,TRUE,Mon Nov 09 2020 13:29:07 GMT+0100 (Mitteleuropäische Normalzeit),1604924947923,3.3413,main_trials,17,filler,none
1227,,4456,21,,none,false,Graduated High School,1604925148401,42,male,german,FALSE,TRUE,Germany has volcanoes.,TRUE,Mon Nov 09 2020 13:29:07 GMT+0100 (Mitteleuropäische Normalzeit),1604924947923,3.3413,main_trials,18,special,5
1227,,8528,21,,6,false,Graduated High School,1604925148401,42,male,german,FALSE,TRUE,The Emperor of Canada isn’t fond of sushi.,FALSE,Mon Nov 09 2020 13:29:07 GMT+0100 (Mitteleuropäische Normalzeit),1604924947923,3.3413,main_trials,19,main,2
1227,,9796,21,,none,true,Graduated High School,1604925148401,42,male,german,FALSE,TRUE,The Grand Canyon in Arizona (USA) is the largest canyon in the world.,TRUE,Mon Nov 09 2020 13:29:07 GMT+0100 (Mitteleuropäische Normalzeit),1604924947923,3.3413,main_trials,20,filler,none
1227,,3981,21,,none,false,Graduated High School,1604925148401,42,male,german,FALSE,TRUE,Albert Einstein was a very famous Chinese scientist.,FALSE,Mon Nov 09 2020 13:29:07 GMT+0100 (Mitteleuropäische Normalzeit),1604924947923,3.3413,main_trials,21,filler,none
1227,,1950,21,,none,false,Graduated High School,1604925148401,42,male,german,FALSE,TRUE,Belgium has rainforests.,FALSE,Mon Nov 09 2020 13:29:07 GMT+0100 (Mitteleuropäische Normalzeit),1604924947923,3.3413,main_trials,22,special,4
1227,,3781,21,,none,true,Graduated High School,1604925148401,42,male,german,FALSE,TRUE,"Germany shares borders with France, Belgium and Denmark.",TRUE,Mon Nov 09 2020 13:29:07 GMT+0100 (Mitteleuropäische Normalzeit),1604924947923,3.3413,main_trials,23,filler,none
1227,,3308,21,,none,true,Graduated High School,1604925148401,42,male,german,FALSE,TRUE,Canada is a democracy.,TRUE,Mon Nov 09 2020 13:29:07 GMT+0100 (Mitteleuropäische Normalzeit),1604924947923,3.3413,main_trials,24,special,2
1199,,6119,18,,none,true,Graduated High School,1603899121861,42,female,German,FALSE,TRUE,Alexander Bell invented the telephone.,TRUE,Wed Oct 28 2020 16:28:56 GMT+0100 (Mitteleuropäische Normalzeit),1603898936594,3.0877833333333333,practice_trials,1,practice,undefined
1199,,7414,18,,none,true,Graduated High School,1603899121861,42,female,German,FALSE,TRUE,"William Shakespeare was an English poet, playwright and actor, regarded as the greatest writer in the English language.",TRUE,Wed Oct 28 2020 16:28:56 GMT+0100 (Mitteleuropäische Normalzeit),1603898936594,3.0877833333333333,practice_trials,2,practice,undefined
1199,,5604,18,,none,false,Graduated High School,1603899121861,42,female,German,FALSE,TRUE,World War II was a global war that lasted from 1914 to 1918.,TRUE,Wed Oct 28 2020 16:28:56 GMT+0100 (Mitteleuropäische Normalzeit),1603898936594,3.0877833333333333,practice_trials,3,practice,undefined
1199,,3807,18,,none,false,Graduated High School,1603899121861,42,female,German,FALSE,TRUE,Spain is a country in Asia.,FALSE,Wed Oct 28 2020 16:28:56 GMT+0100 (Mitteleuropäische Normalzeit),1603898936594,3.0877833333333333,practice_trials,4,practice,undefined
1199,,5407,18,,none,true,Graduated High School,1603899121861,42,female,German,FALSE,TRUE,Normally there are 32 teeth in the adult human body.,TRUE,Wed Oct 28 2020 16:28:56 GMT+0100 (Mitteleuropäische Normalzeit),1603898936594,3.0877833333333333,practice_trials,5,practice,undefined
1199,,9792,18,,none,true,Graduated High School,1603899121861,42,female,German,FALSE,TRUE,Test of English as a Foreign Language (TOEFL) is a standardized test to measure the English language ability of non-native speakers.,TRUE,Wed Oct 28 2020 16:28:56 GMT+0100 (Mitteleuropäische Normalzeit),1603898936594,3.0877833333333333,main_trials,1,filler,none
1199,,7671,18,,none,false,Graduated High School,1603899121861,42,female,German,FALSE,TRUE,People love the polar bears in Australia.,FALSE,Wed Oct 28 2020 16:28:56 GMT+0100 (Mitteleuropäische Normalzeit),1603898936594,3.0877833333333333,main_trials,2,filler,none
1199,,3447,18,,0,false,Graduated High School,1603899121861,42,female,German,FALSE,TRUE,The king of France is bald.,FALSE,Wed Oct 28 2020 16:28:56 GMT+0100 (Mitteleuropäische Normalzeit),1603898936594,3.0877833333333333,main_trials,3,main,1
1199,,6459,18,,none,true,Graduated High School,1603899121861,42,female,German,FALSE,TRUE,"Brazil, Canada and Russia are all bigger countries than Switzerland.",TRUE,Wed Oct 28 2020 16:28:56 GMT+0100 (Mitteleuropäische Normalzeit),1603898936594,3.0877833333333333,main_trials,4,filler,none
1199,,11149,18,,none,true,Graduated High School,1603899121861,42,female,German,FALSE,TRUE,"Agatha Christie was an English writer, known for her detective novels, particularly those revolving around her fictional detectives Hercule Poirot and Miss Marple.",TRUE,Wed Oct 28 2020 16:28:56 GMT+0100 (Mitteleuropäische Normalzeit),1603898936594,3.0877833333333333,main_trials,5,filler,none
1199,,2716,18,,none,true,Graduated High School,1603899121861,42,female,German,FALSE,TRUE,Macbeth is a tragedy by William Shakespeare.,TRUE,Wed Oct 28 2020 16:28:56 GMT+0100 (Mitteleuropäische Normalzeit),1603898936594,3.0877833333333333,main_trials,6,filler,none
1199,,6520,18,,9,false,Graduated High School,1603899121861,42,female,German,FALSE,TRUE,"The volcanoes of Germany, they do not threaten Leipzig.",FALSE,Wed Oct 28 2020 16:28:56 GMT+0100 (Mitteleuropäische Normalzeit),1603898936594,3.0877833333333333,main_trials,7,main,5
1199,,4612,18,,none,false,Graduated High School,1603899121861,42,female,German,FALSE,TRUE,The Leaning Tower of Pisa is one of Germany’s major tourist attractions.,FALSE,Wed Oct 28 2020 16:28:56 GMT+0100 (Mitteleuropäische Normalzeit),1603898936594,3.0877833333333333,main_trials,8,filler,none
1199,,2745,18,,6,false,Graduated High School,1603899121861,42,female,German,FALSE,TRUE,The Emperor of Canada isn’t fond of sushi.,FALSE,Wed Oct 28 2020 16:28:56 GMT+0100 (Mitteleuropäische Normalzeit),1603898936594,3.0877833333333333,main_trials,9,main,2
1199,,7071,18,,none,true,Graduated High School,1603899121861,42,female,German,FALSE,TRUE,The United Nations Children's Fund (UNICEF) provides humanitarian and developmental assistance to children and mothers in developing countries.,TRUE,Wed Oct 28 2020 16:28:56 GMT+0100 (Mitteleuropäische Normalzeit),1603898936594,3.0877833333333333,main_trials,10,filler,none
1199,,2581,18,,none,false,Graduated High School,1603899121861,42,female,German,FALSE,TRUE,France has a king.,FALSE,Wed Oct 28 2020 16:28:56 GMT+0100 (Mitteleuropäische Normalzeit),1603898936594,3.0877833333333333,main_trials,11,special,1
1199,,2824,18,,none,false,Graduated High School,1603899121861,42,female,German,FALSE,TRUE,Planet Earth is the sixth planet from the Sun.,FALSE,Wed Oct 28 2020 16:28:56 GMT+0100 (Mitteleuropäische Normalzeit),1603898936594,3.0877833333333333,main_trials,12,filler,none
1199,,4184,18,,1,false,Graduated High School,1603899121861,42,female,German,FALSE,TRUE,"There is a rainforest in Belgium, and it provides a habitat for many species.",FALSE,Wed Oct 28 2020 16:28:56 GMT+0100 (Mitteleuropäische Normalzeit),1603898936594,3.0877833333333333,main_trials,13,main,4
1199,,4127,18,,none,true,Graduated High School,1603899121861,42,female,German,FALSE,TRUE,The Solar System includes the planet Earth.,TRUE,Wed Oct 28 2020 16:28:56 GMT+0100 (Mitteleuropäische Normalzeit),1603898936594,3.0877833333333333,main_trials,14,filler,none
1199,,4206,18,,none,true,Graduated High School,1603899121861,42,female,German,FALSE,TRUE,The Grand Canyon in Arizona (USA) is the largest canyon in the world.,TRUE,Wed Oct 28 2020 16:28:56 GMT+0100 (Mitteleuropäische Normalzeit),1603898936594,3.0877833333333333,main_trials,15,filler,none
1199,,2231,18,,none,false,Graduated High School,1603899121861,42,female,German,FALSE,TRUE,Germany has volcanoes.,FALSE,Wed Oct 28 2020 16:28:56 GMT+0100 (Mitteleuropäische Normalzeit),1603898936594,3.0877833333333333,main_trials,16,special,5
1199,,10000,18,,none,true,Graduated High School,1603899121861,42,female,German,FALSE,TRUE,The Statue of Liberty is a colossal sculpture on Liberty Island in New York City in the United States.,TRUE,Wed Oct 28 2020 16:28:56 GMT+0100 (Mitteleuropäische Normalzeit),1603898936594,3.0877833333333333,main_trials,17,filler,none
1199,,2614,18,,none,true,Graduated High School,1603899121861,42,female,German,FALSE,TRUE,Canada is a democracy.,TRUE,Wed Oct 28 2020 16:28:56 GMT+0100 (Mitteleuropäische Normalzeit),1603898936594,3.0877833333333333,main_trials,18,special,2
1199,,6423,18,,10,false,Graduated High School,1603899121861,42,female,German,FALSE,TRUE,"Angela Merkel, she was not invited by the Pope’s wife for dinner.",FALSE,Wed Oct 28 2020 16:28:56 GMT+0100 (Mitteleuropäische Normalzeit),1603898936594,3.0877833333333333,main_trials,19,main,3
1199,,3367,18,,none,true,Graduated High School,1603899121861,42,female,German,FALSE,TRUE,The capital city of Russia is Moscow.,TRUE,Wed Oct 28 2020 16:28:56 GMT+0100 (Mitteleuropäische Normalzeit),1603898936594,3.0877833333333333,main_trials,20,filler,none
1199,,8415,18,,none,true,Graduated High School,1603899121861,42,female,German,FALSE,TRUE,The Great Pyramid of Giza is one of the Seven Wonders of the Ancient World and the only one of these ancient world wonders which still exists.,TRUE,Wed Oct 28 2020 16:28:56 GMT+0100 (Mitteleuropäische Normalzeit),1603898936594,3.0877833333333333,main_trials,21,filler,none
1199,,2464,18,,none,false,Graduated High School,1603899121861,42,female,German,FALSE,TRUE,Belgium has rainforests.,TRUE,Wed Oct 28 2020 16:28:56 GMT+0100 (Mitteleuropäische Normalzeit),1603898936594,3.0877833333333333,main_trials,22,special,4
1199,,7062,18,,none,true,Graduated High School,1603899121861,42,female,German,FALSE,TRUE,Earth is the third planet from the sun.,TRUE,Wed Oct 28 2020 16:28:56 GMT+0100 (Mitteleuropäische Normalzeit),1603898936594,3.0877833333333333,main_trials,23,filler,none
1199,,4087,18,,none,true,Graduated High School,1603899121861,42,female,German,FALSE,TRUE,The Pope is currently not married.,TRUE,Wed Oct 28 2020 16:28:56 GMT+0100 (Mitteleuropäische Normalzeit),1603898936594,3.0877833333333333,main_trials,24,special,3
1186,,14437,21,,none,true,Graduated High School,1603881090858,42,female,german,FALSE,TRUE,Normally there are 32 teeth in the adult human body.,TRUE,Mon Oct 26 2020 08:19:38 GMT+0100 (Mitteleuropäische Normalzeit),1603696778492,3071.872766666667,practice_trials,1,practice,undefined
1186,,8006,21,,none,false,Graduated High School,1603881090858,42,female,german,FALSE,TRUE,World War II was a global war that lasted from 1914 to 1918.,FALSE,Mon Oct 26 2020 08:19:38 GMT+0100 (Mitteleuropäische Normalzeit),1603696778492,3071.872766666667,practice_trials,2,practice,undefined
1186,,19360,21,,none,true,Graduated High School,1603881090858,42,female,german,FALSE,TRUE,Alexander Bell invented the telephone.,TRUE,Mon Oct 26 2020 08:19:38 GMT+0100 (Mitteleuropäische Normalzeit),1603696778492,3071.872766666667,practice_trials,3,practice,undefined
1186,,9546,21,,none,true,Graduated High School,1603881090858,42,female,german,FALSE,TRUE,"William Shakespeare was an English poet, playwright and actor, regarded as the greatest writer in the English language.",TRUE,Mon Oct 26 2020 08:19:38 GMT+0100 (Mitteleuropäische Normalzeit),1603696778492,3071.872766666667,practice_trials,4,practice,undefined
1186,,2789,21,,none,false,Graduated High School,1603881090858,42,female,german,FALSE,TRUE,Spain is a country in Asia.,FALSE,Mon Oct 26 2020 08:19:38 GMT+0100 (Mitteleuropäische Normalzeit),1603696778492,3071.872766666667,practice_trials,5,practice,undefined
1186,,6681,21,,none,true,Graduated High School,1603881090858,42,female,german,FALSE,TRUE,Valentine's Day is celebrated in many ways worldwide.,TRUE,Mon Oct 26 2020 08:19:38 GMT+0100 (Mitteleuropäische Normalzeit),1603696778492,3071.872766666667,main_trials,1,filler,none
1186,,4704,21,,none,true,Graduated High School,1603881090858,42,female,german,FALSE,TRUE,Trees absorb carbon dioxide and release oxygen.,TRUE,Mon Oct 26 2020 08:19:38 GMT+0100 (Mitteleuropäische Normalzeit),1603696778492,3071.872766666667,main_trials,2,filler,none
1186,,3722,21,,1,false,Graduated High School,1603881090858,42,female,german,FALSE,TRUE,"France has a king, and he is bald.",FALSE,Mon Oct 26 2020 08:19:38 GMT+0100 (Mitteleuropäische Normalzeit),1603696778492,3071.872766666667,main_trials,3,main,1
1186,,5429,21,,none,true,Graduated High School,1603881090858,42,female,german,FALSE,TRUE,Canada is a country located in North America.,TRUE,Mon Oct 26 2020 08:19:38 GMT+0100 (Mitteleuropäische Normalzeit),1603696778492,3071.872766666667,main_trials,4,filler,none
1186,,2684,21,,none,true,Graduated High School,1603881090858,42,female,german,FALSE,TRUE,Earth has a powerful magnetic field.,TRUE,Mon Oct 26 2020 08:19:38 GMT+0100 (Mitteleuropäische Normalzeit),1603696778492,3071.872766666667,main_trials,5,filler,none
1186,,3786,21,,none,true,Graduated High School,1603881090858,42,female,german,FALSE,TRUE,Harry Potter is a series of fantasy novels written by J. K. Rowling.,TRUE,Mon Oct 26 2020 08:19:38 GMT+0100 (Mitteleuropäische Normalzeit),1603696778492,3071.872766666667,main_trials,6,filler,none
1186,,31149,21,,0,false,Graduated High School,1603881090858,42,female,german,FALSE,TRUE,The Belgian rainforest provides a habitat for many species.,FALSE,Mon Oct 26 2020 08:19:38 GMT+0100 (Mitteleuropäische Normalzeit),1603696778492,3071.872766666667,main_trials,7,main,4
1186,,2850,21,,none,false,Graduated High School,1603881090858,42,female,german,FALSE,TRUE,Big Ben is a very large building in the middle of Paris.,FALSE,Mon Oct 26 2020 08:19:38 GMT+0100 (Mitteleuropäische Normalzeit),1603696778492,3071.872766666667,main_trials,8,filler,none
1186,,9916,21,,10,false,Graduated High School,1603881090858,42,female,german,FALSE,TRUE,"Leipzig, it is not threatened by the volcanoes of Germany.",TRUE,Mon Oct 26 2020 08:19:38 GMT+0100 (Mitteleuropäische Normalzeit),1603696778492,3071.872766666667,main_trials,9,main,5
1186,,3577,21,,none,true,Graduated High School,1603881090858,42,female,german,FALSE,TRUE,London is famous for Big Ben and the Queen.,TRUE,Mon Oct 26 2020 08:19:38 GMT+0100 (Mitteleuropäische Normalzeit),1603696778492,3071.872766666667,main_trials,10,filler,none
1186,,2087,21,,none,false,Graduated High School,1603881090858,42,female,german,FALSE,TRUE,France has a king.,FALSE,Mon Oct 26 2020 08:19:38 GMT+0100 (Mitteleuropäische Normalzeit),1603696778492,3071.872766666667,main_trials,11,special,1
1186,,25023,21,,none,true,Graduated High School,1603881090858,42,female,german,FALSE,TRUE,The Great Pyramid of Giza is one of the Seven Wonders of the Ancient World and the only one of these ancient world wonders which still exists.,TRUE,Mon Oct 26 2020 08:19:38 GMT+0100 (Mitteleuropäische Normalzeit),1603696778492,3071.872766666667,main_trials,12,filler,none
1186,,6400,21,,6,false,Graduated High School,1603881090858,42,female,german,FALSE,TRUE,The Emperor of Canada isn’t fond of sushi.,FALSE,Mon Oct 26 2020 08:19:38 GMT+0100 (Mitteleuropäische Normalzeit),1603696778492,3071.872766666667,main_trials,13,main,2
1186,,7435,21,,none,true,Graduated High School,1603881090858,42,female,german,FALSE,TRUE,The heart is an organ in your body that pumps blood to other organs.,TRUE,Mon Oct 26 2020 08:19:38 GMT+0100 (Mitteleuropäische Normalzeit),1603696778492,3071.872766666667,main_trials,14,filler,none
1186,,4121,21,,none,true,Graduated High School,1603881090858,42,female,german,FALSE,TRUE,The Sun is in the centre of the Solar System.,TRUE,Mon Oct 26 2020 08:19:38 GMT+0100 (Mitteleuropäische Normalzeit),1603696778492,3071.872766666667,main_trials,15,filler,none
1186,,2517,21,,none,false,Graduated High School,1603881090858,42,female,german,FALSE,TRUE,Belgium has rainforests.,FALSE,Mon Oct 26 2020 08:19:38 GMT+0100 (Mitteleuropäische Normalzeit),1603696778492,3071.872766666667,main_trials,16,special,4
1186,,5391,21,,none,true,Graduated High School,1603881090858,42,female,german,FALSE,TRUE,The Great Wall is one of the seven wonders of the world.,TRUE,Mon Oct 26 2020 08:19:38 GMT+0100 (Mitteleuropäische Normalzeit),1603696778492,3071.872766666667,main_trials,17,filler,none
1186,,15239,21,,none,false,Graduated High School,1603881090858,42,female,german,FALSE,TRUE,Germany has volcanoes.,TRUE,Mon Oct 26 2020 08:19:38 GMT+0100 (Mitteleuropäische Normalzeit),1603696778492,3071.872766666667,main_trials,18,special,5
1186,,5698,21,,9,false,Graduated High School,1603881090858,42,female,german,FALSE,TRUE,"The Pope’s wife, she did not invite Angela Merkel for dinner.",FALSE,Mon Oct 26 2020 08:19:38 GMT+0100 (Mitteleuropäische Normalzeit),1603696778492,3071.872766666667,main_trials,19,main,3
1186,,2176,21,,none,false,Graduated High School,1603881090858,42,female,german,FALSE,TRUE,London is the capital of Asia.,FALSE,Mon Oct 26 2020 08:19:38 GMT+0100 (Mitteleuropäische Normalzeit),1603696778492,3071.872766666667,main_trials,20,filler,none
1186,,5636,21,,none,true,Graduated High School,1603881090858,42,female,german,FALSE,TRUE,Test of English as a Foreign Language (TOEFL) is a standardized test to measure the English language ability of non-native speakers.,TRUE,Mon Oct 26 2020 08:19:38 GMT+0100 (Mitteleuropäische Normalzeit),1603696778492,3071.872766666667,main_trials,21,filler,none
1186,,3756,21,,none,true,Graduated High School,1603881090858,42,female,german,FALSE,TRUE,Canada is a democracy.,TRUE,Mon Oct 26 2020 08:19:38 GMT+0100 (Mitteleuropäische Normalzeit),1603696778492,3071.872766666667,main_trials,22,special,2
1186,,3662,21,,none,true,Graduated High School,1603881090858,42,female,german,FALSE,TRUE,Earth is the third planet from the sun.,TRUE,Mon Oct 26 2020 08:19:38 GMT+0100 (Mitteleuropäische Normalzeit),1603696778492,3071.872766666667,main_trials,23,filler,none
1186,,2402,21,,none,true,Graduated High School,1603881090858,42,female,german,FALSE,TRUE,The Pope is currently not married.,TRUE,Mon Oct 26 2020 08:19:38 GMT+0100 (Mitteleuropäische Normalzeit),1603696778492,3071.872766666667,main_trials,24,special,3
1169,,5093,21,,none,false,Graduated High School,1603818978731,42,male,German,FALSE,TRUE,World War II was a global war that lasted from 1914 to 1918.,FALSE,Tue Oct 27 2020 18:12:09 GMT+0100 (Central European Standard Time),1603818729971,4.146,practice_trials,1,practice,undefined
1169,,8144,21,,none,true,Graduated High School,1603818978731,42,male,German,FALSE,TRUE,"William Shakespeare was an English poet, playwright and actor, regarded as the greatest writer in the English language.",TRUE,Tue Oct 27 2020 18:12:09 GMT+0100 (Central European Standard Time),1603818729971,4.146,practice_trials,2,practice,undefined
1169,,2662,21,,none,false,Graduated High School,1603818978731,42,male,German,FALSE,TRUE,Spain is a country in Asia.,FALSE,Tue Oct 27 2020 18:12:09 GMT+0100 (Central European Standard Time),1603818729971,4.146,practice_trials,3,practice,undefined
1169,,11333,21,,none,true,Graduated High School,1603818978731,42,male,German,FALSE,TRUE,Normally there are 32 teeth in the adult human body.,TRUE,Tue Oct 27 2020 18:12:09 GMT+0100 (Central European Standard Time),1603818729971,4.146,practice_trials,4,practice,undefined
1169,,6042,21,,none,true,Graduated High School,1603818978731,42,male,German,FALSE,TRUE,Alexander Bell invented the telephone.,TRUE,Tue Oct 27 2020 18:12:09 GMT+0100 (Central European Standard Time),1603818729971,4.146,practice_trials,5,practice,undefined
1169,,3117,21,,none,false,Graduated High School,1603818978731,42,male,German,FALSE,TRUE,Planet Earth is the sixth planet from the Sun.,FALSE,Tue Oct 27 2020 18:12:09 GMT+0100 (Central European Standard Time),1603818729971,4.146,main_trials,1,filler,none
1169,,3939,21,,none,true,Graduated High School,1603818978731,42,male,German,FALSE,TRUE,Venice is a city in Italy.,TRUE,Tue Oct 27 2020 18:12:09 GMT+0100 (Central European Standard Time),1603818729971,4.146,main_trials,2,filler,none
1169,,10136,21,,6,false,Graduated High School,1603818978731,42,male,German,FALSE,TRUE,The King of France isn’t bald.,TRUE,Tue Oct 27 2020 18:12:09 GMT+0100 (Central European Standard Time),1603818729971,4.146,main_trials,3,main,1
1169,,4412,21,,none,true,Graduated High School,1603818978731,42,male,German,FALSE,TRUE,The Sun is in the centre of the Solar System.,TRUE,Tue Oct 27 2020 18:12:09 GMT+0100 (Central European Standard Time),1603818729971,4.146,main_trials,4,filler,none
1169,,5309,21,,none,true,Graduated High School,1603818978731,42,male,German,FALSE,TRUE,There were two world wars in the 20th Century.,TRUE,Tue Oct 27 2020 18:12:09 GMT+0100 (Central European Standard Time),1603818729971,4.146,main_trials,5,filler,none
1169,,6057,21,,none,false,Graduated High School,1603818978731,42,male,German,FALSE,TRUE,Manchester United is a French football team based in Paris.,FALSE,Tue Oct 27 2020 18:12:09 GMT+0100 (Central European Standard Time),1603818729971,4.146,main_trials,6,filler,none
1169,,3793,21,,0,false,Graduated High School,1603818978731,42,male,German,FALSE,TRUE,The Emperor of Canada is fond of sushi.,FALSE,Tue Oct 27 2020 18:12:09 GMT+0100 (Central European Standard Time),1603818729971,4.146,main_trials,7,main,2
1169,,5745,21,,none,true,Graduated High School,1603818978731,42,male,German,FALSE,TRUE,Canada is a country located in North America.,TRUE,Tue Oct 27 2020 18:12:09 GMT+0100 (Central European Standard Time),1603818729971,4.146,main_trials,8,filler,none
1169,,9685,21,,9,false,Graduated High School,1603818978731,42,male,German,FALSE,TRUE,"The volcanoes of Germany, they do not threaten Leipzig.",TRUE,Tue Oct 27 2020 18:12:09 GMT+0100 (Central European Standard Time),1603818729971,4.146,main_trials,9,main,5
1169,,8717,21,,none,true,Graduated High School,1603818978731,42,male,German,FALSE,TRUE,The town of Pisa in Italy is famous for its Leaning Tower of Pisa.,TRUE,Tue Oct 27 2020 18:12:09 GMT+0100 (Central European Standard Time),1603818729971,4.146,main_trials,10,filler,none
1169,,4033,21,,none,false,Graduated High School,1603818978731,42,male,German,FALSE,TRUE,France has a king.,FALSE,Tue Oct 27 2020 18:12:09 GMT+0100 (Central European Standard Time),1603818729971,4.146,main_trials,11,special,1
1169,,7902,21,,none,true,Graduated High School,1603818978731,42,male,German,FALSE,TRUE,The European Union (EU) is a political and economic union of 28 member states that are located primarily in Europe.,TRUE,Tue Oct 27 2020 18:12:09 GMT+0100 (Central European Standard Time),1603818729971,4.146,main_trials,12,filler,none
1169,,10566,21,,10,false,Graduated High School,1603818978731,42,male,German,FALSE,TRUE,"Donald Trump, his favorite nature spot is not the Belgian rainforest.",TRUE,Tue Oct 27 2020 18:12:09 GMT+0100 (Central European Standard Time),1603818729971,4.146,main_trials,13,main,4
1169,,4841,21,,none,true,Graduated High School,1603818978731,42,male,German,FALSE,TRUE,"Brazil, Canada and Russia are all bigger countries than Switzerland.",TRUE,Tue Oct 27 2020 18:12:09 GMT+0100 (Central European Standard Time),1603818729971,4.146,main_trials,14,filler,none
1169,,4077,21,,none,false,Graduated High School,1603818978731,42,male,German,FALSE,TRUE,The Berlin Wall was destroyed 10 years ago by Sweden.,FALSE,Tue Oct 27 2020 18:12:09 GMT+0100 (Central European Standard Time),1603818729971,4.146,main_trials,15,filler,none
1169,,2238,21,,none,true,Graduated High School,1603818978731,42,male,German,FALSE,TRUE,Canada is a democracy.,TRUE,Tue Oct 27 2020 18:12:09 GMT+0100 (Central European Standard Time),1603818729971,4.146,main_trials,16,special,2
1169,,3724,21,,none,true,Graduated High School,1603818978731,42,male,German,FALSE,TRUE,The heart is an organ in your body that pumps blood to other organs.,TRUE,Tue Oct 27 2020 18:12:09 GMT+0100 (Central European Standard Time),1603818729971,4.146,main_trials,17,filler,none
1169,,2716,21,,none,false,Graduated High School,1603818978731,42,male,German,FALSE,TRUE,Germany has volcanoes.,FALSE,Tue Oct 27 2020 18:12:09 GMT+0100 (Central European Standard Time),1603818729971,4.146,main_trials,18,special,5
1169,,2577,21,,1,false,Graduated High School,1603818978731,42,male,German,FALSE,TRUE,"The Pope has a wife, and she is a lawyer.",FALSE,Tue Oct 27 2020 18:12:09 GMT+0100 (Central European Standard Time),1603818729971,4.146,main_trials,19,main,3
1169,,4959,21,,none,true,Graduated High School,1603818978731,42,male,German,FALSE,TRUE,The capital city of Japan is Tokyo.,TRUE,Tue Oct 27 2020 18:12:09 GMT+0100 (Central European Standard Time),1603818729971,4.146,main_trials,20,filler,none
1169,,2794,21,,none,true,Graduated High School,1603818978731,42,male,German,FALSE,TRUE,Charles Darwin was a biologist known for his theory of evolution.,TRUE,Tue Oct 27 2020 18:12:09 GMT+0100 (Central European Standard Time),1603818729971,4.146,main_trials,21,filler,none
1169,,3803,21,,none,false,Graduated High School,1603818978731,42,male,German,FALSE,TRUE,Belgium has rainforests.,FALSE,Tue Oct 27 2020 18:12:09 GMT+0100 (Central European Standard Time),1603818729971,4.146,main_trials,22,special,4
1169,,7856,21,,none,true,Graduated High School,1603818978731,42,male,German,FALSE,TRUE,The United Nations (UN) is an intergovernmental organization tasked to promote international cooperation and to create and maintain international order.,TRUE,Tue Oct 27 2020 18:12:09 GMT+0100 (Central European Standard Time),1603818729971,4.146,main_trials,23,filler,none
1169,,2723,21,,none,true,Graduated High School,1603818978731,42,male,German,FALSE,TRUE,The Pope is currently not married.,TRUE,Tue Oct 27 2020 18:12:09 GMT+0100 (Central European Standard Time),1603818729971,4.146,main_trials,24,special,3
1152,,2874,26,,none,true,Graduated High School,1603812036693,42,female,German,FALSE,TRUE,Alexander Bell invented the telephone.,TRUE,Tue Oct 27 2020 16:17:29 GMT+0100 (Mitteleuropäische Normalzeit),1603811849506,3.1197833333333334,practice_trials,1,practice,undefined
1152,,6662,26,,none,false,Graduated High School,1603812036693,42,female,German,FALSE,TRUE,World War II was a global war that lasted from 1914 to 1918.,FALSE,Tue Oct 27 2020 16:17:29 GMT+0100 (Mitteleuropäische Normalzeit),1603811849506,3.1197833333333334,practice_trials,2,practice,undefined
1152,,1821,26,,none,false,Graduated High School,1603812036693,42,female,German,FALSE,TRUE,Spain is a country in Asia.,FALSE,Tue Oct 27 2020 16:17:29 GMT+0100 (Mitteleuropäische Normalzeit),1603811849506,3.1197833333333334,practice_trials,3,practice,undefined
1152,,10677,26,,none,true,Graduated High School,1603812036693,42,female,German,FALSE,TRUE,"William Shakespeare was an English poet, playwright and actor, regarded as the greatest writer in the English language.",TRUE,Tue Oct 27 2020 16:17:29 GMT+0100 (Mitteleuropäische Normalzeit),1603811849506,3.1197833333333334,practice_trials,4,practice,undefined
1152,,3853,26,,none,true,Graduated High School,1603812036693,42,female,German,FALSE,TRUE,Normally there are 32 teeth in the adult human body.,FALSE,Tue Oct 27 2020 16:17:29 GMT+0100 (Mitteleuropäische Normalzeit),1603811849506,3.1197833333333334,practice_trials,5,practice,undefined
1152,,4541,26,,none,true,Graduated High School,1603812036693,42,female,German,FALSE,TRUE,"The statue of Jesus Christ is a famous sightseeing attraction in the city of Rio de Janeiro, Brazil.",TRUE,Tue Oct 27 2020 16:17:29 GMT+0100 (Mitteleuropäische Normalzeit),1603811849506,3.1197833333333334,main_trials,1,filler,none
1152,,3720,26,,none,true,Graduated High School,1603812036693,42,female,German,FALSE,TRUE,Valentine's Day is celebrated in many ways worldwide.,TRUE,Tue Oct 27 2020 16:17:29 GMT+0100 (Mitteleuropäische Normalzeit),1603811849506,3.1197833333333334,main_trials,2,filler,none
1152,,3232,26,,9,false,Graduated High School,1603812036693,42,female,German,FALSE,TRUE,"The volcanoes of Germany, they do not threaten Leipzig.",TRUE,Tue Oct 27 2020 16:17:29 GMT+0100 (Mitteleuropäische Normalzeit),1603811849506,3.1197833333333334,main_trials,3,main,5
1152,,3003,26,,none,true,Graduated High School,1603812036693,42,female,German,FALSE,TRUE,London is famous for Big Ben and the Queen.,TRUE,Tue Oct 27 2020 16:17:29 GMT+0100 (Mitteleuropäische Normalzeit),1603811849506,3.1197833333333334,main_trials,4,filler,none
1152,,3832,26,,none,true,Graduated High School,1603812036693,42,female,German,FALSE,TRUE,The Sun is in the centre of the Solar System.,TRUE,Tue Oct 27 2020 16:17:29 GMT+0100 (Mitteleuropäische Normalzeit),1603811849506,3.1197833333333334,main_trials,5,filler,none
1152,,3379,26,,none,true,Graduated High School,1603812036693,42,female,German,FALSE,TRUE,The Moon is an astronomical body that orbits planet Earth.,TRUE,Tue Oct 27 2020 16:17:29 GMT+0100 (Mitteleuropäische Normalzeit),1603811849506,3.1197833333333334,main_trials,6,filler,none
1152,,3244,26,,1,false,Graduated High School,1603812036693,42,female,German,FALSE,TRUE,"France has a king, and he is bald.",FALSE,Tue Oct 27 2020 16:17:29 GMT+0100 (Mitteleuropäische Normalzeit),1603811849506,3.1197833333333334,main_trials,7,main,1
1152,,6879,26,,none,true,Graduated High School,1603812036693,42,female,German,FALSE,TRUE,Trees absorb carbon dioxide and release oxygen.,TRUE,Tue Oct 27 2020 16:17:29 GMT+0100 (Mitteleuropäische Normalzeit),1603811849506,3.1197833333333334,main_trials,8,filler,none
1152,,5624,26,,0,false,Graduated High School,1603812036693,42,female,German,FALSE,TRUE,The Emperor of Canada is fond of sushi.,FALSE,Tue Oct 27 2020 16:17:29 GMT+0100 (Mitteleuropäische Normalzeit),1603811849506,3.1197833333333334,main_trials,9,main,2
1152,,7154,26,,none,true,Graduated High School,1603812036693,42,female,German,FALSE,TRUE,"Birds are a group of vertebrates, characterized by feathers and wings.",TRUE,Tue Oct 27 2020 16:17:29 GMT+0100 (Mitteleuropäische Normalzeit),1603811849506,3.1197833333333334,main_trials,10,filler,none
1152,,1516,26,,none,false,Graduated High School,1603812036693,42,female,German,FALSE,TRUE,Germany has volcanoes.,TRUE,Tue Oct 27 2020 16:17:29 GMT+0100 (Mitteleuropäische Normalzeit),1603811849506,3.1197833333333334,main_trials,11,special,5
1152,,4040,26,,none,true,Graduated High School,1603812036693,42,female,German,FALSE,TRUE,Harry Potter is a series of fantasy novels written by J. K. Rowling.,TRUE,Tue Oct 27 2020 16:17:29 GMT+0100 (Mitteleuropäische Normalzeit),1603811849506,3.1197833333333334,main_trials,12,filler,none
1152,,15613,26,,6,false,Graduated High School,1603812036693,42,female,German,FALSE,TRUE,The Belgian rainforest doesn’t provide a habitat for many species.,TRUE,Tue Oct 27 2020 16:17:29 GMT+0100 (Mitteleuropäische Normalzeit),1603811849506,3.1197833333333334,main_trials,13,main,4
1152,,6004,26,,none,false,Graduated High School,1603812036693,42,female,German,FALSE,TRUE,The Berlin Wall was destroyed 10 years ago by Sweden.,FALSE,Tue Oct 27 2020 16:17:29 GMT+0100 (Mitteleuropäische Normalzeit),1603811849506,3.1197833333333334,main_trials,14,filler,none
1152,,8815,26,,none,false,Graduated High School,1603812036693,42,female,German,FALSE,TRUE,Vatican City is the world's largest country by land area.,FALSE,Tue Oct 27 2020 16:17:29 GMT+0100 (Mitteleuropäische Normalzeit),1603811849506,3.1197833333333334,main_trials,15,filler,none
1152,,1789,26,,none,false,Graduated High School,1603812036693,42,female,German,FALSE,TRUE,France has a king.,FALSE,Tue Oct 27 2020 16:17:29 GMT+0100 (Mitteleuropäische Normalzeit),1603811849506,3.1197833333333334,main_trials,16,special,1
1152,,12384,26,,none,false,Graduated High School,1603812036693,42,female,German,FALSE,TRUE,Planet Earth is the sixth planet from the Sun.,FALSE,Tue Oct 27 2020 16:17:29 GMT+0100 (Mitteleuropäische Normalzeit),1603811849506,3.1197833333333334,main_trials,17,filler,none
1152,,1834,26,,none,true,Graduated High School,1603812036693,42,female,German,FALSE,TRUE,Canada is a democracy.,TRUE,Tue Oct 27 2020 16:17:29 GMT+0100 (Mitteleuropäische Normalzeit),1603811849506,3.1197833333333334,main_trials,18,special,2
1152,,7260,26,,10,false,Graduated High School,1603812036693,42,female,German,FALSE,TRUE,"Angela Merkel, she was not invited by the Pope’s wife for dinner.",TRUE,Tue Oct 27 2020 16:17:29 GMT+0100 (Mitteleuropäische Normalzeit),1603811849506,3.1197833333333334,main_trials,19,main,3
1152,,5691,26,,none,true,Graduated High School,1603812036693,42,female,German,FALSE,TRUE,An earthquake is the result of the sudden movement of the earth’s tectonic plates.,TRUE,Tue Oct 27 2020 16:17:29 GMT+0100 (Mitteleuropäische Normalzeit),1603811849506,3.1197833333333334,main_trials,20,filler,none
1152,,3094,26,,none,true,Graduated High School,1603812036693,42,female,German,FALSE,TRUE,Johnny Depp is an American actor who took part in the ‘Pirates of the Caribbean’ movies.,TRUE,Tue Oct 27 2020 16:17:29 GMT+0100 (Mitteleuropäische Normalzeit),1603811849506,3.1197833333333334,main_trials,21,filler,none
1152,,3064,26,,none,false,Graduated High School,1603812036693,42,female,German,FALSE,TRUE,Belgium has rainforests.,FALSE,Tue Oct 27 2020 16:17:29 GMT+0100 (Mitteleuropäische Normalzeit),1603811849506,3.1197833333333334,main_trials,22,special,4
1152,,9772,26,,none,true,Graduated High School,1603812036693,42,female,German,FALSE,TRUE,"Agatha Christie was an English writer, known for her detective novels, particularly those revolving around her fictional detectives Hercule Poirot and Miss Marple.",TRUE,Tue Oct 27 2020 16:17:29 GMT+0100 (Mitteleuropäische Normalzeit),1603811849506,3.1197833333333334,main_trials,23,filler,none
1152,,2159,26,,none,true,Graduated High School,1603812036693,42,female,German,FALSE,TRUE,The Pope is currently not married.,TRUE,Tue Oct 27 2020 16:17:29 GMT+0100 (Mitteleuropäische Normalzeit),1603811849506,3.1197833333333334,main_trials,24,special,3
1142,,4164,21,,none,false,Graduated High School,1603808670882,42,female,Russian,FALSE,TRUE,Spain is a country in Asia.,FALSE,Tue Oct 27 2020 15:21:03 GMT+0100 (Mitteleuropäische Normalzeit),1603808463703,3.4529833333333335,practice_trials,1,practice,undefined
1142,,5008,21,,none,true,Graduated High School,1603808670882,42,female,Russian,FALSE,TRUE,"William Shakespeare was an English poet, playwright and actor, regarded as the greatest writer in the English language.",TRUE,Tue Oct 27 2020 15:21:03 GMT+0100 (Mitteleuropäische Normalzeit),1603808463703,3.4529833333333335,practice_trials,2,practice,undefined
1142,,3601,21,,none,true,Graduated High School,1603808670882,42,female,Russian,FALSE,TRUE,Alexander Bell invented the telephone.,TRUE,Tue Oct 27 2020 15:21:03 GMT+0100 (Mitteleuropäische Normalzeit),1603808463703,3.4529833333333335,practice_trials,3,practice,undefined
1142,,25766,21,,none,true,Graduated High School,1603808670882,42,female,Russian,FALSE,TRUE,Normally there are 32 teeth in the adult human body.,TRUE,Tue Oct 27 2020 15:21:03 GMT+0100 (Mitteleuropäische Normalzeit),1603808463703,3.4529833333333335,practice_trials,4,practice,undefined
1142,,6850,21,,none,false,Graduated High School,1603808670882,42,female,Russian,FALSE,TRUE,World War II was a global war that lasted from 1914 to 1918.,TRUE,Tue Oct 27 2020 15:21:03 GMT+0100 (Mitteleuropäische Normalzeit),1603808463703,3.4529833333333335,practice_trials,5,practice,undefined
1142,,3043,21,,none,true,Graduated High School,1603808670882,42,female,Russian,FALSE,TRUE,Canada is a country located in North America.,TRUE,Tue Oct 27 2020 15:21:03 GMT+0100 (Mitteleuropäische Normalzeit),1603808463703,3.4529833333333335,main_trials,1,filler,none
1142,,5515,21,,none,true,Graduated High School,1603808670882,42,female,Russian,FALSE,TRUE,"Brazil, Canada and Russia are all bigger countries than Switzerland.",TRUE,Tue Oct 27 2020 15:21:03 GMT+0100 (Mitteleuropäische Normalzeit),1603808463703,3.4529833333333335,main_trials,2,filler,none
1142,,5901,21,,6,false,Graduated High School,1603808670882,42,female,Russian,FALSE,TRUE,The Emperor of Canada isn’t fond of sushi.,FALSE,Tue Oct 27 2020 15:21:03 GMT+0100 (Mitteleuropäische Normalzeit),1603808463703,3.4529833333333335,main_trials,3,main,2
1142,,3324,21,,none,true,Graduated High School,1603808670882,42,female,Russian,FALSE,TRUE,In the German language every noun has a gender.,TRUE,Tue Oct 27 2020 15:21:03 GMT+0100 (Mitteleuropäische Normalzeit),1603808463703,3.4529833333333335,main_trials,4,filler,none
1142,,6225,21,,none,true,Graduated High School,1603808670882,42,female,Russian,FALSE,TRUE,The United Nations Children's Fund (UNICEF) provides humanitarian and developmental assistance to children and mothers in developing countries.,TRUE,Tue Oct 27 2020 15:21:03 GMT+0100 (Mitteleuropäische Normalzeit),1603808463703,3.4529833333333335,main_trials,5,filler,none
1142,,2700,21,,none,false,Graduated High School,1603808670882,42,female,Russian,FALSE,TRUE,Romeo and Juliet is a tragedy written by Leo Tolstoy.,FALSE,Tue Oct 27 2020 15:21:03 GMT+0100 (Mitteleuropäische Normalzeit),1603808463703,3.4529833333333335,main_trials,6,filler,none
1142,,6058,21,,9,false,Graduated High School,1603808670882,42,female,Russian,FALSE,TRUE,"The Pope’s wife, she did not invite Angela Merkel for dinner.",TRUE,Tue Oct 27 2020 15:21:03 GMT+0100 (Mitteleuropäische Normalzeit),1603808463703,3.4529833333333335,main_trials,7,main,3
1142,,13094,21,,none,true,Graduated High School,1603808670882,42,female,Russian,FALSE,TRUE,There are more than 2 countries in the United Nations.,TRUE,Tue Oct 27 2020 15:21:03 GMT+0100 (Mitteleuropäische Normalzeit),1603808463703,3.4529833333333335,main_trials,8,filler,none
1142,,2533,21,,1,false,Graduated High School,1603808670882,42,female,Russian,FALSE,TRUE,"There are volcanoes in Germany, and they dominate the landscape.",FALSE,Tue Oct 27 2020 15:21:03 GMT+0100 (Mitteleuropäische Normalzeit),1603808463703,3.4529833333333335,main_trials,9,main,5
1142,,2643,21,,none,true,Graduated High School,1603808670882,42,female,Russian,FALSE,TRUE,"English is the main language in Australia, Britain and New Zealand.",TRUE,Tue Oct 27 2020 15:21:03 GMT+0100 (Mitteleuropäische Normalzeit),1603808463703,3.4529833333333335,main_trials,10,filler,none
1142,,6140,21,,none,true,Graduated High School,1603808670882,42,female,Russian,FALSE,TRUE,Canada is a democracy.,FALSE,Tue Oct 27 2020 15:21:03 GMT+0100 (Mitteleuropäische Normalzeit),1603808463703,3.4529833333333335,main_trials,11,special,2
1142,,2598,21,,none,true,Graduated High School,1603808670882,42,female,Russian,FALSE,TRUE,London is famous for Big Ben and the Queen.,TRUE,Tue Oct 27 2020 15:21:03 GMT+0100 (Mitteleuropäische Normalzeit),1603808463703,3.4529833333333335,main_trials,12,filler,none
1142,,4407,21,,0,false,Graduated High School,1603808670882,42,female,Russian,FALSE,TRUE,The king of France is bald.,FALSE,Tue Oct 27 2020 15:21:03 GMT+0100 (Mitteleuropäische Normalzeit),1603808463703,3.4529833333333335,main_trials,13,main,1
1142,,5762,21,,none,true,Graduated High School,1603808670882,42,female,Russian,FALSE,TRUE,The Great Pyramid of Giza is one of the Seven Wonders of the Ancient World and the only one of these ancient world wonders which still exists.,TRUE,Tue Oct 27 2020 15:21:03 GMT+0100 (Mitteleuropäische Normalzeit),1603808463703,3.4529833333333335,main_trials,14,filler,none
1142,,6099,21,,none,true,Graduated High School,1603808670882,42,female,Russian,FALSE,TRUE,The Solar System includes the planet Earth.,TRUE,Tue Oct 27 2020 15:21:03 GMT+0100 (Mitteleuropäische Normalzeit),1603808463703,3.4529833333333335,main_trials,15,filler,none
1142,,2582,21,,none,true,Graduated High School,1603808670882,42,female,Russian,FALSE,TRUE,The Pope is currently not married.,TRUE,Tue Oct 27 2020 15:21:03 GMT+0100 (Mitteleuropäische Normalzeit),1603808463703,3.4529833333333335,main_trials,16,special,3
1142,,2416,21,,none,true,Graduated High School,1603808670882,42,female,Russian,FALSE,TRUE,Water boils at 100 degree C.,TRUE,Tue Oct 27 2020 15:21:03 GMT+0100 (Mitteleuropäische Normalzeit),1603808463703,3.4529833333333335,main_trials,17,filler,none
1142,,4767,21,,none,false,Graduated High School,1603808670882,42,female,Russian,FALSE,TRUE,Germany has volcanoes.,TRUE,Tue Oct 27 2020 15:21:03 GMT+0100 (Mitteleuropäische Normalzeit),1603808463703,3.4529833333333335,main_trials,18,special,5
1142,,5919,21,,10,false,Graduated High School,1603808670882,42,female,Russian,FALSE,TRUE,"Donald Trump, his favorite nature spot is not the Belgian rainforest.",TRUE,Tue Oct 27 2020 15:21:03 GMT+0100 (Mitteleuropäische Normalzeit),1603808463703,3.4529833333333335,main_trials,19,main,4
1142,,4596,21,,none,true,Graduated High School,1603808670882,42,female,Russian,FALSE,TRUE,One of the longest rivers in Europe is the Rhine.,TRUE,Tue Oct 27 2020 15:21:03 GMT+0100 (Mitteleuropäische Normalzeit),1603808463703,3.4529833333333335,main_trials,20,filler,none
1142,,6918,21,,none,true,Graduated High School,1603808670882,42,female,Russian,FALSE,TRUE,Water is of major importance to all living organisms.,TRUE,Tue Oct 27 2020 15:21:03 GMT+0100 (Mitteleuropäische Normalzeit),1603808463703,3.4529833333333335,main_trials,21,filler,none
1142,,2035,21,,none,false,Graduated High School,1603808670882,42,female,Russian,FALSE,TRUE,France has a king.,FALSE,Tue Oct 27 2020 15:21:03 GMT+0100 (Mitteleuropäische Normalzeit),1603808463703,3.4529833333333335,main_trials,22,special,1
1142,,4564,21,,none,true,Graduated High School,1603808670882,42,female,Russian,FALSE,TRUE,The brain is made up of very special cells called neurons.,TRUE,Tue Oct 27 2020 15:21:03 GMT+0100 (Mitteleuropäische Normalzeit),1603808463703,3.4529833333333335,main_trials,23,filler,none
1142,,2484,21,,none,false,Graduated High School,1603808670882,42,female,Russian,FALSE,TRUE,Belgium has rainforests.,FALSE,Tue Oct 27 2020 15:21:03 GMT+0100 (Mitteleuropäische Normalzeit),1603808463703,3.4529833333333335,main_trials,24,special,4
1121,,4385,19,,none,false,Graduated High School,1603804197001,42,female,German,FALSE,TRUE,Spain is a country in Asia.,FALSE,Tue Oct 27 2020 14:04:36 GMT+0100 (Mitteleuropäische Normalzeit),1603803876812,5.336483333333334,practice_trials,1,practice,undefined
1121,,31336,19,,none,true,Graduated High School,1603804197001,42,female,German,FALSE,TRUE,Normally there are 32 teeth in the adult human body.,FALSE,Tue Oct 27 2020 14:04:36 GMT+0100 (Mitteleuropäische Normalzeit),1603803876812,5.336483333333334,practice_trials,2,practice,undefined
1121,,5663,19,,none,false,Graduated High School,1603804197001,42,female,German,FALSE,TRUE,World War II was a global war that lasted from 1914 to 1918.,FALSE,Tue Oct 27 2020 14:04:36 GMT+0100 (Mitteleuropäische Normalzeit),1603803876812,5.336483333333334,practice_trials,3,practice,undefined
1121,,7946,19,,none,true,Graduated High School,1603804197001,42,female,German,FALSE,TRUE,"William Shakespeare was an English poet, playwright and actor, regarded as the greatest writer in the English language.",TRUE,Tue Oct 27 2020 14:04:36 GMT+0100 (Mitteleuropäische Normalzeit),1603803876812,5.336483333333334,practice_trials,4,practice,undefined
1121,,6674,19,,none,true,Graduated High School,1603804197001,42,female,German,FALSE,TRUE,Alexander Bell invented the telephone.,TRUE,Tue Oct 27 2020 14:04:36 GMT+0100 (Mitteleuropäische Normalzeit),1603803876812,5.336483333333334,practice_trials,5,practice,undefined
1121,,4979,19,,none,true,Graduated High School,1603804197001,42,female,German,FALSE,TRUE,Canada is a country located in North America.,TRUE,Tue Oct 27 2020 14:04:36 GMT+0100 (Mitteleuropäische Normalzeit),1603803876812,5.336483333333334,main_trials,1,filler,none
1121,,3567,19,,none,false,Graduated High School,1603804197001,42,female,German,FALSE,TRUE,The Queen of England is a 20 year old man.,FALSE,Tue Oct 27 2020 14:04:36 GMT+0100 (Mitteleuropäische Normalzeit),1603803876812,5.336483333333334,main_trials,2,filler,none
1121,,12643,19,,6,false,Graduated High School,1603804197001,42,female,German,FALSE,TRUE,The King of France isn’t bald.,TRUE,Tue Oct 27 2020 14:04:36 GMT+0100 (Mitteleuropäische Normalzeit),1603803876812,5.336483333333334,main_trials,3,main,1
1121,,4310,19,,none,false,Graduated High School,1603804197001,42,female,German,FALSE,TRUE,The Leaning Tower of Pisa is one of Germany’s major tourist attractions.,FALSE,Tue Oct 27 2020 14:04:36 GMT+0100 (Mitteleuropäische Normalzeit),1603803876812,5.336483333333334,main_trials,4,filler,none
1121,,6788,19,,none,true,Graduated High School,1603804197001,42,female,German,FALSE,TRUE,The Earth was once believed to be the centre of the universe.,TRUE,Tue Oct 27 2020 14:04:36 GMT+0100 (Mitteleuropäische Normalzeit),1603803876812,5.336483333333334,main_trials,5,filler,none
1121,,6447,19,,none,true,Graduated High School,1603804197001,42,female,German,FALSE,TRUE,The University of Edinburgh is located in Great Britain.,TRUE,Tue Oct 27 2020 14:04:36 GMT+0100 (Mitteleuropäische Normalzeit),1603803876812,5.336483333333334,main_trials,6,filler,none
1121,,9894,19,,9,false,Graduated High School,1603804197001,42,female,German,FALSE,TRUE,"The Pope’s wife, she did not invite Angela Merkel for dinner.",TRUE,Tue Oct 27 2020 14:04:36 GMT+0100 (Mitteleuropäische Normalzeit),1603803876812,5.336483333333334,main_trials,7,main,3
1121,,2917,19,,none,false,Graduated High School,1603804197001,42,female,German,FALSE,TRUE,Big Ben is a very large building in the middle of Paris.,FALSE,Tue Oct 27 2020 14:04:36 GMT+0100 (Mitteleuropäische Normalzeit),1603803876812,5.336483333333334,main_trials,8,filler,none
1121,,3931,19,,0,false,Graduated High School,1603804197001,42,female,German,FALSE,TRUE,The Belgian rainforest provides a habitat for many species.,FALSE,Tue Oct 27 2020 14:04:36 GMT+0100 (Mitteleuropäische Normalzeit),1603803876812,5.336483333333334,main_trials,9,main,4
1121,,8163,19,,none,true,Graduated High School,1603804197001,42,female,German,FALSE,TRUE,In the German language every noun has a gender.,TRUE,Tue Oct 27 2020 14:04:36 GMT+0100 (Mitteleuropäische Normalzeit),1603803876812,5.336483333333334,main_trials,10,filler,none
1121,,2827,19,,none,false,Graduated High School,1603804197001,42,female,German,FALSE,TRUE,France has a king.,FALSE,Tue Oct 27 2020 14:04:36 GMT+0100 (Mitteleuropäische Normalzeit),1603803876812,5.336483333333334,main_trials,11,special,1
1121,,5540,19,,none,true,Graduated High School,1603804197001,42,female,German,FALSE,TRUE,There are more than 2 countries in the United Nations.,TRUE,Tue Oct 27 2020 14:04:36 GMT+0100 (Mitteleuropäische Normalzeit),1603803876812,5.336483333333334,main_trials,12,filler,none
1121,,4184,19,,1,false,Graduated High School,1603804197001,42,female,German,FALSE,TRUE,"Canada has an emperor, and he is fond of sushi.",FALSE,Tue Oct 27 2020 14:04:36 GMT+0100 (Mitteleuropäische Normalzeit),1603803876812,5.336483333333334,main_trials,13,main,2
1121,,25531,19,,none,true,Graduated High School,1603804197001,42,female,German,FALSE,TRUE,The United Nations (UN) is an intergovernmental organization tasked to promote international cooperation and to create and maintain international order.,TRUE,Tue Oct 27 2020 14:04:36 GMT+0100 (Mitteleuropäische Normalzeit),1603803876812,5.336483333333334,main_trials,14,filler,none
1121,,8180,19,,none,true,Graduated High School,1603804197001,42,female,German,FALSE,TRUE,"The simplest, functioning part of an organism is a cell.",TRUE,Tue Oct 27 2020 14:04:36 GMT+0100 (Mitteleuropäische Normalzeit),1603803876812,5.336483333333334,main_trials,15,filler,none
1121,,2147,19,,none,true,Graduated High School,1603804197001,42,female,German,FALSE,TRUE,The Pope is currently not married.,TRUE,Tue Oct 27 2020 14:04:36 GMT+0100 (Mitteleuropäische Normalzeit),1603803876812,5.336483333333334,main_trials,16,special,3
1121,,3035,19,,none,true,Graduated High School,1603804197001,42,female,German,FALSE,TRUE,The president of the USA is called Donald Trump.,TRUE,Tue Oct 27 2020 14:04:36 GMT+0100 (Mitteleuropäische Normalzeit),1603803876812,5.336483333333334,main_trials,17,filler,none
1121,,1603,19,,none,false,Graduated High School,1603804197001,42,female,German,FALSE,TRUE,Belgium has rainforests.,FALSE,Tue Oct 27 2020 14:04:36 GMT+0100 (Mitteleuropäische Normalzeit),1603803876812,5.336483333333334,main_trials,18,special,4
1121,,3944,19,,10,false,Graduated High School,1603804197001,42,female,German,FALSE,TRUE,"Leipzig, it is not threatened by the volcanoes of Germany.",TRUE,Tue Oct 27 2020 14:04:36 GMT+0100 (Mitteleuropäische Normalzeit),1603803876812,5.336483333333334,main_trials,19,main,5
1121,,7752,19,,none,false,Graduated High School,1603804197001,42,female,German,FALSE,TRUE,The Eiffel Tower is one of the most popular and frequently visited tourist attractions in Italy.,FALSE,Tue Oct 27 2020 14:04:36 GMT+0100 (Mitteleuropäische Normalzeit),1603803876812,5.336483333333334,main_trials,20,filler,none
1121,,6860,19,,none,true,Graduated High School,1603804197001,42,female,German,FALSE,TRUE,FIFA World Cup tournament is an international football competition.,TRUE,Tue Oct 27 2020 14:04:36 GMT+0100 (Mitteleuropäische Normalzeit),1603803876812,5.336483333333334,main_trials,21,filler,none
1121,,2240,19,,none,true,Graduated High School,1603804197001,42,female,German,FALSE,TRUE,Canada is a democracy.,TRUE,Tue Oct 27 2020 14:04:36 GMT+0100 (Mitteleuropäische Normalzeit),1603803876812,5.336483333333334,main_trials,22,special,2
1121,,2791,19,,none,true,Graduated High School,1603804197001,42,female,German,FALSE,TRUE,Venice is a city in Italy.,TRUE,Tue Oct 27 2020 14:04:36 GMT+0100 (Mitteleuropäische Normalzeit),1603803876812,5.336483333333334,main_trials,23,filler,none
1121,,1810,19,,none,false,Graduated High School,1603804197001,42,female,German,FALSE,TRUE,Germany has volcanoes.,FALSE,Tue Oct 27 2020 14:04:36 GMT+0100 (Mitteleuropäische Normalzeit),1603803876812,5.336483333333334,main_trials,24,special,5
1090,,6079,20,,none,true,Graduated High School,1603795616038,42,female,German,FALSE,TRUE,"William Shakespeare was an English poet, playwright and actor, regarded as the greatest writer in the English language.",TRUE,Tue Oct 27 2020 11:43:55 GMT+0100 (Mitteleuropäische Normalzeit),1603795435912,3.0021,practice_trials,1,practice,undefined
1090,,4265,20,,none,true,Graduated High School,1603795616038,42,female,German,FALSE,TRUE,Alexander Bell invented the telephone.,TRUE,Tue Oct 27 2020 11:43:55 GMT+0100 (Mitteleuropäische Normalzeit),1603795435912,3.0021,practice_trials,2,practice,undefined
1090,,2040,20,,none,false,Graduated High School,1603795616038,42,female,German,FALSE,TRUE,Spain is a country in Asia.,FALSE,Tue Oct 27 2020 11:43:55 GMT+0100 (Mitteleuropäische Normalzeit),1603795435912,3.0021,practice_trials,3,practice,undefined
1090,,4885,20,,none,true,Graduated High School,1603795616038,42,female,German,FALSE,TRUE,Normally there are 32 teeth in the adult human body.,TRUE,Tue Oct 27 2020 11:43:55 GMT+0100 (Mitteleuropäische Normalzeit),1603795435912,3.0021,practice_trials,4,practice,undefined
1090,,4519,20,,none,false,Graduated High School,1603795616038,42,female,German,FALSE,TRUE,World War II was a global war that lasted from 1914 to 1918.,FALSE,Tue Oct 27 2020 11:43:55 GMT+0100 (Mitteleuropäische Normalzeit),1603795435912,3.0021,practice_trials,5,practice,undefined
1090,,8442,20,,none,true,Graduated High School,1603795616038,42,female,German,FALSE,TRUE,Test of English as a Foreign Language (TOEFL) is a standardized test to measure the English language ability of non-native speakers.,TRUE,Tue Oct 27 2020 11:43:55 GMT+0100 (Mitteleuropäische Normalzeit),1603795435912,3.0021,main_trials,1,filler,none
1090,,4075,20,,none,false,Graduated High School,1603795616038,42,female,German,FALSE,TRUE,The Eiffel Tower is one of the most popular and frequently visited tourist attractions in Italy.,FALSE,Tue Oct 27 2020 11:43:55 GMT+0100 (Mitteleuropäische Normalzeit),1603795435912,3.0021,main_trials,2,filler,none
1090,,6172,20,,6,false,Graduated High School,1603795616038,42,female,German,FALSE,TRUE,The volcanoes of Germany do not dominate the landscape.,TRUE,Tue Oct 27 2020 11:43:55 GMT+0100 (Mitteleuropäische Normalzeit),1603795435912,3.0021,main_trials,3,main,5
1090,,3481,20,,none,true,Graduated High School,1603795616038,42,female,German,FALSE,TRUE,Brazil is the largest country in South America.,TRUE,Tue Oct 27 2020 11:43:55 GMT+0100 (Mitteleuropäische Normalzeit),1603795435912,3.0021,main_trials,4,filler,none
1090,,3357,20,,none,true,Graduated High School,1603795616038,42,female,German,FALSE,TRUE,Harry Potter is a series of fantasy novels written by J. K. Rowling.,TRUE,Tue Oct 27 2020 11:43:55 GMT+0100 (Mitteleuropäische Normalzeit),1603795435912,3.0021,main_trials,5,filler,none
1090,,2729,20,,none,true,Graduated High School,1603795616038,42,female,German,FALSE,TRUE,Monkeys like to eat bananas.,TRUE,Tue Oct 27 2020 11:43:55 GMT+0100 (Mitteleuropäische Normalzeit),1603795435912,3.0021,main_trials,6,filler,none
1090,,4840,20,,9,false,Graduated High School,1603795616038,42,female,German,FALSE,TRUE,"The Pope’s wife, she did not invite Angela Merkel for dinner.",FALSE,Tue Oct 27 2020 11:43:55 GMT+0100 (Mitteleuropäische Normalzeit),1603795435912,3.0021,main_trials,7,main,3
1090,,5672,20,,none,true,Graduated High School,1603795616038,42,female,German,FALSE,TRUE,"Brazil, Canada and Russia are all bigger countries than Switzerland.",TRUE,Tue Oct 27 2020 11:43:55 GMT+0100 (Mitteleuropäische Normalzeit),1603795435912,3.0021,main_trials,8,filler,none
1090,,5888,20,,0,false,Graduated High School,1603795616038,42,female,German,FALSE,TRUE,The Belgian rainforest provides a habitat for many species.,FALSE,Tue Oct 27 2020 11:43:55 GMT+0100 (Mitteleuropäische Normalzeit),1603795435912,3.0021,main_trials,9,main,4
1090,,3754,20,,none,true,Graduated High School,1603795616038,42,female,German,FALSE,TRUE,The Earth was once believed to be the centre of the universe.,TRUE,Tue Oct 27 2020 11:43:55 GMT+0100 (Mitteleuropäische Normalzeit),1603795435912,3.0021,main_trials,10,filler,none
1090,,2120,20,,none,false,Graduated High School,1603795616038,42,female,German,FALSE,TRUE,Germany has volcanoes.,TRUE,Tue Oct 27 2020 11:43:55 GMT+0100 (Mitteleuropäische Normalzeit),1603795435912,3.0021,main_trials,11,special,5
1090,,3164,20,,none,false,Graduated High School,1603795616038,42,female,German,FALSE,TRUE,Romeo and Juliet is a tragedy written by Leo Tolstoy.,FALSE,Tue Oct 27 2020 11:43:55 GMT+0100 (Mitteleuropäische Normalzeit),1603795435912,3.0021,main_trials,12,filler,none
1090,,4062,20,,1,false,Graduated High School,1603795616038,42,female,German,FALSE,TRUE,"Canada has an emperor, and he is fond of sushi.",FALSE,Tue Oct 27 2020 11:43:55 GMT+0100 (Mitteleuropäische Normalzeit),1603795435912,3.0021,main_trials,13,main,2
1090,,4255,20,,none,true,Graduated High School,1603795616038,42,female,German,FALSE,TRUE,The heart is an organ in your body that pumps blood to other organs.,TRUE,Tue Oct 27 2020 11:43:55 GMT+0100 (Mitteleuropäische Normalzeit),1603795435912,3.0021,main_trials,14,filler,none
1090,,4889,20,,none,true,Graduated High School,1603795616038,42,female,German,FALSE,TRUE,Lower Saxony is a German state situated in northwestern Germany.,TRUE,Tue Oct 27 2020 11:43:55 GMT+0100 (Mitteleuropäische Normalzeit),1603795435912,3.0021,main_trials,15,filler,none
1090,,2716,20,,none,true,Graduated High School,1603795616038,42,female,German,FALSE,TRUE,The Pope is currently not married.,TRUE,Tue Oct 27 2020 11:43:55 GMT+0100 (Mitteleuropäische Normalzeit),1603795435912,3.0021,main_trials,16,special,3
1090,,4789,20,,none,true,Graduated High School,1603795616038,42,female,German,FALSE,TRUE,The capital city of Ireland is Dublin.,TRUE,Tue Oct 27 2020 11:43:55 GMT+0100 (Mitteleuropäische Normalzeit),1603795435912,3.0021,main_trials,17,filler,none
1090,,3420,20,,none,false,Graduated High School,1603795616038,42,female,German,FALSE,TRUE,Belgium has rainforests.,FALSE,Tue Oct 27 2020 11:43:55 GMT+0100 (Mitteleuropäische Normalzeit),1603795435912,3.0021,main_trials,18,special,4
1090,,5580,20,,10,false,Graduated High School,1603795616038,42,female,German,FALSE,TRUE,"Emmanuel Macron, he did not call the King of France last night.",TRUE,Tue Oct 27 2020 11:43:55 GMT+0100 (Mitteleuropäische Normalzeit),1603795435912,3.0021,main_trials,19,main,1
1090,,5727,20,,none,true,Graduated High School,1603795616038,42,female,German,FALSE,TRUE,FIFA World Cup tournament is an international football competition.,TRUE,Tue Oct 27 2020 11:43:55 GMT+0100 (Mitteleuropäische Normalzeit),1603795435912,3.0021,main_trials,20,filler,none
1090,,3329,20,,none,false,Graduated High School,1603795616038,42,female,German,FALSE,TRUE,Albert Einstein was a very famous Chinese scientist.,FALSE,Tue Oct 27 2020 11:43:55 GMT+0100 (Mitteleuropäische Normalzeit),1603795435912,3.0021,main_trials,21,filler,none
1090,,2667,20,,none,true,Graduated High School,1603795616038,42,female,German,FALSE,TRUE,Canada is a democracy.,TRUE,Tue Oct 27 2020 11:43:55 GMT+0100 (Mitteleuropäische Normalzeit),1603795435912,3.0021,main_trials,22,special,2
1090,,4283,20,,none,false,Graduated High School,1603795616038,42,female,German,FALSE,TRUE,The Leaning Tower of Pisa is one of Germany’s major tourist attractions.,FALSE,Tue Oct 27 2020 11:43:55 GMT+0100 (Mitteleuropäische Normalzeit),1603795435912,3.0021,main_trials,23,filler,none
1090,,2562,20,,none,false,Graduated High School,1603795616038,42,female,German,FALSE,TRUE,France has a king.,FALSE,Tue Oct 27 2020 11:43:55 GMT+0100 (Mitteleuropäische Normalzeit),1603795435912,3.0021,main_trials,24,special,1
1089,,3541,24,,none,true,Graduated College,1603730288200,42,male,German,FALSE,TRUE,"William Shakespeare was an English poet, playwright and actor, regarded as the greatest writer in the English language.",TRUE,Mon Oct 26 2020 17:25:35 GMT+0100 (Mitteleuropäische Normalzeit),1603729535182,12.5503,practice_trials,1,practice,undefined
1089,,1713,24,,none,false,Graduated College,1603730288200,42,male,German,FALSE,TRUE,Spain is a country in Asia.,FALSE,Mon Oct 26 2020 17:25:35 GMT+0100 (Mitteleuropäische Normalzeit),1603729535182,12.5503,practice_trials,2,practice,undefined
1089,,3471,24,,none,true,Graduated College,1603730288200,42,male,German,FALSE,TRUE,Normally there are 32 teeth in the adult human body.,TRUE,Mon Oct 26 2020 17:25:35 GMT+0100 (Mitteleuropäische Normalzeit),1603729535182,12.5503,practice_trials,3,practice,undefined
1089,,2795,24,,none,true,Graduated College,1603730288200,42,male,German,FALSE,TRUE,Alexander Bell invented the telephone.,TRUE,Mon Oct 26 2020 17:25:35 GMT+0100 (Mitteleuropäische Normalzeit),1603729535182,12.5503,practice_trials,4,practice,undefined
1089,,6063,24,,none,false,Graduated College,1603730288200,42,male,German,FALSE,TRUE,World War II was a global war that lasted from 1914 to 1918.,FALSE,Mon Oct 26 2020 17:25:35 GMT+0100 (Mitteleuropäische Normalzeit),1603729535182,12.5503,practice_trials,5,practice,undefined
1089,,5391,24,,none,true,Graduated College,1603730288200,42,male,German,FALSE,TRUE,One of the longest rivers in Europe is the Rhine.,TRUE,Mon Oct 26 2020 17:25:35 GMT+0100 (Mitteleuropäische Normalzeit),1603729535182,12.5503,main_trials,1,filler,none
1089,,3981,24,,none,true,Graduated College,1603730288200,42,male,German,FALSE,TRUE,Test of English as a Foreign Language (TOEFL) is a standardized test to measure the English language ability of non-native speakers.,TRUE,Mon Oct 26 2020 17:25:35 GMT+0100 (Mitteleuropäische Normalzeit),1603729535182,12.5503,main_trials,2,filler,none
1089,,5879,24,,9,false,Graduated College,1603730288200,42,male,German,FALSE,TRUE,"The Belgian rainforest, it is not the favorite nature spot of Donald Trump.",FALSE,Mon Oct 26 2020 17:25:35 GMT+0100 (Mitteleuropäische Normalzeit),1603729535182,12.5503,main_trials,3,main,4
1089,,3437,24,,none,true,Graduated College,1603730288200,42,male,German,FALSE,TRUE,FIFA World Cup tournament is an international football competition.,TRUE,Mon Oct 26 2020 17:25:35 GMT+0100 (Mitteleuropäische Normalzeit),1603729535182,12.5503,main_trials,4,filler,none
1089,,4706,24,,none,true,Graduated College,1603730288200,42,male,German,FALSE,TRUE,"The Bermuda Triangle, is a region in the Atlantic Ocean, where a number of aircraft and ships are said to have disappeared under mysterious circumstances.",TRUE,Mon Oct 26 2020 17:25:35 GMT+0100 (Mitteleuropäische Normalzeit),1603729535182,12.5503,main_trials,5,filler,none
1089,,5272,24,,none,true,Graduated College,1603730288200,42,male,German,FALSE,TRUE,Currywurst is a popular fast food in Germany.,TRUE,Mon Oct 26 2020 17:25:35 GMT+0100 (Mitteleuropäische Normalzeit),1603729535182,12.5503,main_trials,6,filler,none
1089,,1948,24,,0,false,Graduated College,1603730288200,42,male,German,FALSE,TRUE,The volcanoes of Germany dominate the landscape.,FALSE,Mon Oct 26 2020 17:25:35 GMT+0100 (Mitteleuropäische Normalzeit),1603729535182,12.5503,main_trials,7,main,5
1089,,2812,24,,none,true,Graduated College,1603730288200,42,male,German,FALSE,TRUE,The Moon is an astronomical body that orbits planet Earth.,TRUE,Mon Oct 26 2020 17:25:35 GMT+0100 (Mitteleuropäische Normalzeit),1603729535182,12.5503,main_trials,8,filler,none
1089,,4552,24,,6,false,Graduated College,1603730288200,42,male,German,FALSE,TRUE,The Pope’s wife isn’t a lawyer.,FALSE,Mon Oct 26 2020 17:25:35 GMT+0100 (Mitteleuropäische Normalzeit),1603729535182,12.5503,main_trials,9,main,3
1089,,2284,24,,none,true,Graduated College,1603730288200,42,male,German,FALSE,TRUE,The Sun is in the centre of the Solar System.,TRUE,Mon Oct 26 2020 17:25:35 GMT+0100 (Mitteleuropäische Normalzeit),1603729535182,12.5503,main_trials,10,filler,none
1089,,1650,24,,none,false,Graduated College,1603730288200,42,male,German,FALSE,TRUE,Belgium has rainforests.,FALSE,Mon Oct 26 2020 17:25:35 GMT+0100 (Mitteleuropäische Normalzeit),1603729535182,12.5503,main_trials,11,special,4
1089,,2414,24,,none,true,Graduated College,1603730288200,42,male,German,FALSE,TRUE,Stephen William Hawking was a famous physicist.,TRUE,Mon Oct 26 2020 17:25:35 GMT+0100 (Mitteleuropäische Normalzeit),1603729535182,12.5503,main_trials,12,filler,none
1089,,2956,24,,1,false,Graduated College,1603730288200,42,male,German,FALSE,TRUE,"France has a king, and he is bald.",FALSE,Mon Oct 26 2020 17:25:35 GMT+0100 (Mitteleuropäische Normalzeit),1603729535182,12.5503,main_trials,13,main,1
1089,,4786,24,,none,false,Graduated College,1603730288200,42,male,German,FALSE,TRUE,The Leaning Tower of Pisa is one of Germany’s major tourist attractions.,FALSE,Mon Oct 26 2020 17:25:35 GMT+0100 (Mitteleuropäische Normalzeit),1603729535182,12.5503,main_trials,14,filler,none
1089,,2220,24,,none,false,Graduated College,1603730288200,42,male,German,FALSE,TRUE,James Bond is a spanish dancer from Madrid.,FALSE,Mon Oct 26 2020 17:25:35 GMT+0100 (Mitteleuropäische Normalzeit),1603729535182,12.5503,main_trials,15,filler,none
1089,,1884,24,,none,false,Graduated College,1603730288200,42,male,German,FALSE,TRUE,Germany has volcanoes.,TRUE,Mon Oct 26 2020 17:25:35 GMT+0100 (Mitteleuropäische Normalzeit),1603729535182,12.5503,main_trials,16,special,5
1089,,5580,24,,none,true,Graduated College,1603730288200,42,male,German,FALSE,TRUE,The Republic of South Africa is located in the continent of Africa.,TRUE,Mon Oct 26 2020 17:25:35 GMT+0100 (Mitteleuropäische Normalzeit),1603729535182,12.5503,main_trials,17,filler,none
1089,,2298,24,,none,true,Graduated College,1603730288200,42,male,German,FALSE,TRUE,The Pope is currently not married.,FALSE,Mon Oct 26 2020 17:25:35 GMT+0100 (Mitteleuropäische Normalzeit),1603729535182,12.5503,main_trials,18,special,3
1089,,5428,24,,10,false,Graduated College,1603730288200,42,male,German,FALSE,TRUE,"Dresden, it is not the home of the Emperor of Canada for the summer.",FALSE,Mon Oct 26 2020 17:25:35 GMT+0100 (Mitteleuropäische Normalzeit),1603729535182,12.5503,main_trials,19,main,2
1089,,2988,24,,none,true,Graduated College,1603730288200,42,male,German,FALSE,TRUE,Water is of major importance to all living organisms.,TRUE,Mon Oct 26 2020 17:25:35 GMT+0100 (Mitteleuropäische Normalzeit),1603729535182,12.5503,main_trials,20,filler,none
1089,,2164,24,,none,true,Graduated College,1603730288200,42,male,German,FALSE,TRUE,The brain needs a constant supply of oxygen to perform basic functions.,TRUE,Mon Oct 26 2020 17:25:35 GMT+0100 (Mitteleuropäische Normalzeit),1603729535182,12.5503,main_trials,21,filler,none
1089,,1540,24,,none,false,Graduated College,1603730288200,42,male,German,FALSE,TRUE,France has a king.,FALSE,Mon Oct 26 2020 17:25:35 GMT+0100 (Mitteleuropäische Normalzeit),1603729535182,12.5503,main_trials,22,special,1
1089,,3318,24,,none,true,Graduated College,1603730288200,42,male,German,FALSE,TRUE,The United Nations (UN) is an intergovernmental organization tasked to promote international cooperation and to create and maintain international order.,TRUE,Mon Oct 26 2020 17:25:35 GMT+0100 (Mitteleuropäische Normalzeit),1603729535182,12.5503,main_trials,23,filler,none
1089,,1314,24,,none,true,Graduated College,1603730288200,42,male,German,FALSE,TRUE,Canada is a democracy.,TRUE,Mon Oct 26 2020 17:25:35 GMT+0100 (Mitteleuropäische Normalzeit),1603729535182,12.5503,main_trials,24,special,2
1088,,4853,26,,none,true,Higher Degree,1603730084166,42,female,"English, Hindi",FALSE,TRUE,Normally there are 32 teeth in the adult human body.,TRUE,Sun Oct 25 2020 13:57:25 GMT+0100 (Central European Standard Time),1603630645483,1657.3113833333334,practice_trials,1,practice,undefined
1088,,2023,26,,none,false,Higher Degree,1603730084166,42,female,"English, Hindi",FALSE,TRUE,Spain is a country in Asia.,FALSE,Sun Oct 25 2020 13:57:25 GMT+0100 (Central European Standard Time),1603630645483,1657.3113833333334,practice_trials,2,practice,undefined
1088,,4567,26,,none,true,Higher Degree,1603730084166,42,female,"English, Hindi",FALSE,TRUE,Alexander Bell invented the telephone.,FALSE,Sun Oct 25 2020 13:57:25 GMT+0100 (Central European Standard Time),1603630645483,1657.3113833333334,practice_trials,3,practice,undefined
1088,,4376,26,,none,true,Higher Degree,1603730084166,42,female,"English, Hindi",FALSE,TRUE,"William Shakespeare was an English poet, playwright and actor, regarded as the greatest writer in the English language.",TRUE,Sun Oct 25 2020 13:57:25 GMT+0100 (Central European Standard Time),1603630645483,1657.3113833333334,practice_trials,4,practice,undefined
1088,,3879,26,,none,false,Higher Degree,1603730084166,42,female,"English, Hindi",FALSE,TRUE,World War II was a global war that lasted from 1914 to 1918.,FALSE,Sun Oct 25 2020 13:57:25 GMT+0100 (Central European Standard Time),1603630645483,1657.3113833333334,practice_trials,5,practice,undefined
1088,,2812,26,,none,true,Higher Degree,1603730084166,42,female,"English, Hindi",FALSE,TRUE,The Earth was once believed to be the centre of the universe.,TRUE,Sun Oct 25 2020 13:57:25 GMT+0100 (Central European Standard Time),1603630645483,1657.3113833333334,main_trials,1,filler,none
1088,,4570,26,,none,false,Higher Degree,1603730084166,42,female,"English, Hindi",FALSE,TRUE,Planet Earth is the sixth planet from the Sun.,FALSE,Sun Oct 25 2020 13:57:25 GMT+0100 (Central European Standard Time),1603630645483,1657.3113833333334,main_trials,2,filler,none
1088,,4913,26,,0,false,Higher Degree,1603730084166,42,female,"English, Hindi",FALSE,TRUE,The Emperor of Canada is fond of sushi.,FALSE,Sun Oct 25 2020 13:57:25 GMT+0100 (Central European Standard Time),1603630645483,1657.3113833333334,main_trials,3,main,2
1088,,8162,26,,none,true,Higher Degree,1603730084166,42,female,"English, Hindi",FALSE,TRUE,In the German language every noun has a gender.,TRUE,Sun Oct 25 2020 13:57:25 GMT+0100 (Central European Standard Time),1603630645483,1657.3113833333334,main_trials,4,filler,none
1088,,2834,26,,none,true,Higher Degree,1603730084166,42,female,"English, Hindi",FALSE,TRUE,Currywurst is a popular fast food in Germany.,TRUE,Sun Oct 25 2020 13:57:25 GMT+0100 (Central European Standard Time),1603630645483,1657.3113833333334,main_trials,5,filler,none
1088,,2620,26,,none,true,Higher Degree,1603730084166,42,female,"English, Hindi",FALSE,TRUE,The Solar System includes the planet Earth.,TRUE,Sun Oct 25 2020 13:57:25 GMT+0100 (Central European Standard Time),1603630645483,1657.3113833333334,main_trials,6,filler,none
1088,,10399,26,,9,false,Higher Degree,1603730084166,42,female,"English, Hindi",FALSE,TRUE,"The King of France, he did not call Emmanuel Macron last night.",FALSE,Sun Oct 25 2020 13:57:25 GMT+0100 (Central European Standard Time),1603630645483,1657.3113833333334,main_trials,7,main,1
1088,,17504,26,,none,true,Higher Degree,1603730084166,42,female,"English, Hindi",FALSE,TRUE,The Great Pyramid of Giza is one of the Seven Wonders of the Ancient World and the only one of these ancient world wonders which still exists.,TRUE,Sun Oct 25 2020 13:57:25 GMT+0100 (Central European Standard Time),1603630645483,1657.3113833333334,main_trials,8,filler,none
1088,,4167,26,,10,false,Higher Degree,1603730084166,42,female,"English, Hindi",FALSE,TRUE,"Leipzig, it is not threatened by the volcanoes of Germany.",TRUE,Sun Oct 25 2020 13:57:25 GMT+0100 (Central European Standard Time),1603630645483,1657.3113833333334,main_trials,9,main,5
1088,,2423,26,,none,false,Higher Degree,1603730084166,42,female,"English, Hindi",FALSE,TRUE,William Shakespeare was a famous Italian painter in Rome.,FALSE,Sun Oct 25 2020 13:57:25 GMT+0100 (Central European Standard Time),1603630645483,1657.3113833333334,main_trials,10,filler,none
1088,,2559,26,,none,true,Higher Degree,1603730084166,42,female,"English, Hindi",FALSE,TRUE,Canada is a democracy.,TRUE,Sun Oct 25 2020 13:57:25 GMT+0100 (Central European Standard Time),1603630645483,1657.3113833333334,main_trials,11,special,2
1088,,4001,26,,none,false,Higher Degree,1603730084166,42,female,"English, Hindi",FALSE,TRUE,The desert of Sweden is the hottest desert in the world.,FALSE,Sun Oct 25 2020 13:57:25 GMT+0100 (Central European Standard Time),1603630645483,1657.3113833333334,main_trials,12,filler,none
1088,,4042,26,,6,false,Higher Degree,1603730084166,42,female,"English, Hindi",FALSE,TRUE,The Belgian rainforest doesn’t provide a habitat for many species.,FALSE,Sun Oct 25 2020 13:57:25 GMT+0100 (Central European Standard Time),1603630645483,1657.3113833333334,main_trials,13,main,4
1088,,4202,26,,none,true,Higher Degree,1603730084166,42,female,"English, Hindi",FALSE,TRUE,Russia is one of the biggest countries in the world.,TRUE,Sun Oct 25 2020 13:57:25 GMT+0100 (Central European Standard Time),1603630645483,1657.3113833333334,main_trials,14,filler,none
1088,,1362,26,,none,true,Higher Degree,1603730084166,42,female,"English, Hindi",FALSE,TRUE,Water boils at 100 degree C.,TRUE,Sun Oct 25 2020 13:57:25 GMT+0100 (Central European Standard Time),1603630645483,1657.3113833333334,main_trials,15,filler,none
1088,,1718,26,,none,false,Higher Degree,1603730084166,42,female,"English, Hindi",FALSE,TRUE,France has a king.,FALSE,Sun Oct 25 2020 13:57:25 GMT+0100 (Central European Standard Time),1603630645483,1657.3113833333334,main_trials,16,special,1
1088,,5330,26,,none,true,Higher Degree,1603730084166,42,female,"English, Hindi",FALSE,TRUE,"The Bermuda Triangle, is a region in the Atlantic Ocean, where a number of aircraft and ships are said to have disappeared under mysterious circumstances.",TRUE,Sun Oct 25 2020 13:57:25 GMT+0100 (Central European Standard Time),1603630645483,1657.3113833333334,main_trials,17,filler,none
1088,,1642,26,,none,false,Higher Degree,1603730084166,42,female,"English, Hindi",FALSE,TRUE,Germany has volcanoes.,FALSE,Sun Oct 25 2020 13:57:25 GMT+0100 (Central European Standard Time),1603630645483,1657.3113833333334,main_trials,18,special,5
1088,,2703,26,,1,false,Higher Degree,1603730084166,42,female,"English, Hindi",FALSE,TRUE,"The Pope has a wife, and she is a lawyer.",FALSE,Sun Oct 25 2020 13:57:25 GMT+0100 (Central European Standard Time),1603630645483,1657.3113833333334,main_trials,19,main,3
1088,,2005,26,,none,true,Higher Degree,1603730084166,42,female,"English, Hindi",FALSE,TRUE,Paris is a popular city for many tourists.,TRUE,Sun Oct 25 2020 13:57:25 GMT+0100 (Central European Standard Time),1603630645483,1657.3113833333334,main_trials,20,filler,none
1088,,2759,26,,none,true,Higher Degree,1603730084166,42,female,"English, Hindi",FALSE,TRUE,Trees absorb carbon dioxide and release oxygen.,TRUE,Sun Oct 25 2020 13:57:25 GMT+0100 (Central European Standard Time),1603630645483,1657.3113833333334,main_trials,21,filler,none
1088,,6390,26,,none,false,Higher Degree,1603730084166,42,female,"English, Hindi",FALSE,TRUE,Belgium has rainforests.,FALSE,Sun Oct 25 2020 13:57:25 GMT+0100 (Central European Standard Time),1603630645483,1657.3113833333334,main_trials,22,special,4
1088,,3947,26,,none,false,Higher Degree,1603730084166,42,female,"English, Hindi",FALSE,TRUE,James Bond is a spanish dancer from Madrid.,FALSE,Sun Oct 25 2020 13:57:25 GMT+0100 (Central European Standard Time),1603630645483,1657.3113833333334,main_trials,23,filler,none
1088,,2572,26,,none,true,Higher Degree,1603730084166,42,female,"English, Hindi",FALSE,TRUE,The Pope is currently not married.,TRUE,Sun Oct 25 2020 13:57:25 GMT+0100 (Central European Standard Time),1603630645483,1657.3113833333334,main_trials,24,special,3
1087,,4961,24,,none,false,Graduated High School,1603707331453,42,male,german,FALSE,TRUE,World War II was a global war that lasted from 1914 to 1918.,FALSE,Mon Oct 26 2020 11:12:19 GMT+0100 (Mitteleuropäische Normalzeit),1603707139012,3.20735,practice_trials,1,practice,undefined
1087,,2312,24,,none,false,Graduated High School,1603707331453,42,male,german,FALSE,TRUE,Spain is a country in Asia.,FALSE,Mon Oct 26 2020 11:12:19 GMT+0100 (Mitteleuropäische Normalzeit),1603707139012,3.20735,practice_trials,2,practice,undefined
1087,,5974,24,,none,true,Graduated High School,1603707331453,42,male,german,FALSE,TRUE,Normally there are 32 teeth in the adult human body.,TRUE,Mon Oct 26 2020 11:12:19 GMT+0100 (Mitteleuropäische Normalzeit),1603707139012,3.20735,practice_trials,3,practice,undefined
1087,,6622,24,,none,true,Graduated High School,1603707331453,42,male,german,FALSE,TRUE,"William Shakespeare was an English poet, playwright and actor, regarded as the greatest writer in the English language.",TRUE,Mon Oct 26 2020 11:12:19 GMT+0100 (Mitteleuropäische Normalzeit),1603707139012,3.20735,practice_trials,4,practice,undefined
1087,,4081,24,,none,true,Graduated High School,1603707331453,42,male,german,FALSE,TRUE,Alexander Bell invented the telephone.,TRUE,Mon Oct 26 2020 11:12:19 GMT+0100 (Mitteleuropäische Normalzeit),1603707139012,3.20735,practice_trials,5,practice,undefined
1087,,5874,24,,none,false,Graduated High School,1603707331453,42,male,german,FALSE,TRUE,The Leaning Tower of Pisa is one of Germany’s major tourist attractions.,FALSE,Mon Oct 26 2020 11:12:19 GMT+0100 (Mitteleuropäische Normalzeit),1603707139012,3.20735,main_trials,1,filler,none
1087,,2215,24,,none,true,Graduated High School,1603707331453,42,male,german,FALSE,TRUE,Venice is a city in Italy.,TRUE,Mon Oct 26 2020 11:12:19 GMT+0100 (Mitteleuropäische Normalzeit),1603707139012,3.20735,main_trials,2,filler,none
1087,,6096,24,,0,false,Graduated High School,1603707331453,42,male,german,FALSE,TRUE,The Emperor of Canada is fond of sushi.,FALSE,Mon Oct 26 2020 11:12:19 GMT+0100 (Mitteleuropäische Normalzeit),1603707139012,3.20735,main_trials,3,main,2
1087,,6699,24,,none,true,Graduated High School,1603707331453,42,male,german,FALSE,TRUE,"The Sydney Opera House, built in Australia’s biggest city, is famous for its roof’s architecture.",TRUE,Mon Oct 26 2020 11:12:19 GMT+0100 (Mitteleuropäische Normalzeit),1603707139012,3.20735,main_trials,4,filler,none
1087,,4036,24,,none,false,Graduated High School,1603707331453,42,male,german,FALSE,TRUE,Romeo and Juliet is a tragedy written by Leo Tolstoy.,FALSE,Mon Oct 26 2020 11:12:19 GMT+0100 (Mitteleuropäische Normalzeit),1603707139012,3.20735,main_trials,5,filler,none
1087,,3628,24,,none,true,Graduated High School,1603707331453,42,male,german,FALSE,TRUE,Canada is a country located in North America.,TRUE,Mon Oct 26 2020 11:12:19 GMT+0100 (Mitteleuropäische Normalzeit),1603707139012,3.20735,main_trials,6,filler,none
1087,,12607,24,,10,false,Graduated High School,1603707331453,42,male,german,FALSE,TRUE,"Emmanuel Macron, he did not call the King of France last night.",TRUE,Mon Oct 26 2020 11:12:19 GMT+0100 (Mitteleuropäische Normalzeit),1603707139012,3.20735,main_trials,7,main,1
1087,,4239,24,,none,true,Graduated High School,1603707331453,42,male,german,FALSE,TRUE,The Sun is in the centre of the Solar System.,FALSE,Mon Oct 26 2020 11:12:19 GMT+0100 (Mitteleuropäische Normalzeit),1603707139012,3.20735,main_trials,8,filler,none
1087,,7618,24,,6,false,Graduated High School,1603707331453,42,male,german,FALSE,TRUE,The volcanoes of Germany do not dominate the landscape.,TRUE,Mon Oct 26 2020 11:12:19 GMT+0100 (Mitteleuropäische Normalzeit),1603707139012,3.20735,main_trials,9,main,5
1087,,3371,24,,none,true,Graduated High School,1603707331453,42,male,german,FALSE,TRUE,The Sahara desert in Africa is the largest desert in the world.,TRUE,Mon Oct 26 2020 11:12:19 GMT+0100 (Mitteleuropäische Normalzeit),1603707139012,3.20735,main_trials,10,filler,none
1087,,1976,24,,none,true,Graduated High School,1603707331453,42,male,german,FALSE,TRUE,Canada is a democracy.,TRUE,Mon Oct 26 2020 11:12:19 GMT+0100 (Mitteleuropäische Normalzeit),1603707139012,3.20735,main_trials,11,special,2
1087,,5788,24,,none,true,Graduated High School,1603707331453,42,male,german,FALSE,TRUE,The capital city of Japan is Tokyo.,TRUE,Mon Oct 26 2020 11:12:19 GMT+0100 (Mitteleuropäische Normalzeit),1603707139012,3.20735,main_trials,12,filler,none
1087,,11121,24,,9,false,Graduated High School,1603707331453,42,male,german,FALSE,TRUE,"The Belgian rainforest, it is not the favorite nature spot of Donald Trump.",FALSE,Mon Oct 26 2020 11:12:19 GMT+0100 (Mitteleuropäische Normalzeit),1603707139012,3.20735,main_trials,13,main,4
1087,,3494,24,,none,true,Graduated High School,1603707331453,42,male,german,FALSE,TRUE,Alzheimer’s Disease is a brain disorder that affects memory.,TRUE,Mon Oct 26 2020 11:12:19 GMT+0100 (Mitteleuropäische Normalzeit),1603707139012,3.20735,main_trials,14,filler,none
1087,,2701,24,,none,true,Graduated High School,1603707331453,42,male,german,FALSE,TRUE,Leonardo DiCaprio is a famous actor.,TRUE,Mon Oct 26 2020 11:12:19 GMT+0100 (Mitteleuropäische Normalzeit),1603707139012,3.20735,main_trials,15,filler,none
1087,,3243,24,,none,false,Graduated High School,1603707331453,42,male,german,FALSE,TRUE,France has a king.,FALSE,Mon Oct 26 2020 11:12:19 GMT+0100 (Mitteleuropäische Normalzeit),1603707139012,3.20735,main_trials,16,special,1
1087,,9610,24,,none,false,Graduated High School,1603707331453,42,male,german,FALSE,TRUE,Australia has a very large border with Brazil.,FALSE,Mon Oct 26 2020 11:12:19 GMT+0100 (Mitteleuropäische Normalzeit),1603707139012,3.20735,main_trials,17,filler,none
1087,,1682,24,,none,false,Graduated High School,1603707331453,42,male,german,FALSE,TRUE,Germany has volcanoes.,FALSE,Mon Oct 26 2020 11:12:19 GMT+0100 (Mitteleuropäische Normalzeit),1603707139012,3.20735,main_trials,18,special,5
1087,,3769,24,,1,false,Graduated High School,1603707331453,42,male,german,FALSE,TRUE,"The Pope has a wife, and she is a lawyer.",FALSE,Mon Oct 26 2020 11:12:19 GMT+0100 (Mitteleuropäische Normalzeit),1603707139012,3.20735,main_trials,19,main,3
1087,,5545,24,,none,true,Graduated High School,1603707331453,42,male,german,FALSE,TRUE,Earth has a powerful magnetic field.,TRUE,Mon Oct 26 2020 11:12:19 GMT+0100 (Mitteleuropäische Normalzeit),1603707139012,3.20735,main_trials,20,filler,none
1087,,2832,24,,none,true,Graduated High School,1603707331453,42,male,german,FALSE,TRUE,The president of the USA is called Donald Trump.,TRUE,Mon Oct 26 2020 11:12:19 GMT+0100 (Mitteleuropäische Normalzeit),1603707139012,3.20735,main_trials,21,filler,none
1087,,2225,24,,none,false,Graduated High School,1603707331453,42,male,german,FALSE,TRUE,Belgium has rainforests.,FALSE,Mon Oct 26 2020 11:12:19 GMT+0100 (Mitteleuropäische Normalzeit),1603707139012,3.20735,main_trials,22,special,4
1087,,4539,24,,none,true,Graduated High School,1603707331453,42,male,german,FALSE,TRUE,Lower Saxony is a German state situated in northwestern Germany.,TRUE,Mon Oct 26 2020 11:12:19 GMT+0100 (Mitteleuropäische Normalzeit),1603707139012,3.20735,main_trials,23,filler,none
1087,,2905,24,,none,true,Graduated High School,1603707331453,42,male,german,FALSE,TRUE,The Pope is currently not married.,TRUE,Mon Oct 26 2020 11:12:19 GMT+0100 (Mitteleuropäische Normalzeit),1603707139012,3.20735,main_trials,24,special,3
1086,,23517,,"For me, it would have been more intuitive if the TRUE button was on the left side because that might lead to unwanted answers. And this is in case you are not investigating the positioning of the buttons. And if you are, maybe it would have been helpful to ask if participants are left or right-handed.\n\nIt was an interesting experiment :)",none,true,Higher Degree,1603662261242,42,female,,FALSE,TRUE,Alexander Bell invented the telephone.,TRUE,Sun Oct 25 2020 22:33:30 GMT+0100 (Central European Standard Time),1603661610993,10.837483333333333,practice_trials,1,practice,undefined
1086,,4117,,"For me, it would have been more intuitive if the TRUE button was on the left side because that might lead to unwanted answers. And this is in case you are not investigating the positioning of the buttons. And if you are, maybe it would have been helpful to ask if participants are left or right-handed.\n\nIt was an interesting experiment :)",none,false,Higher Degree,1603662261242,42,female,,FALSE,TRUE,World War II was a global war that lasted from 1914 to 1918.,TRUE,Sun Oct 25 2020 22:33:30 GMT+0100 (Central European Standard Time),1603661610993,10.837483333333333,practice_trials,2,practice,undefined
1086,,2657,,"For me, it would have been more intuitive if the TRUE button was on the left side because that might lead to unwanted answers. And this is in case you are not investigating the positioning of the buttons. And if you are, maybe it would have been helpful to ask if participants are left or right-handed.\n\nIt was an interesting experiment :)",none,true,Higher Degree,1603662261242,42,female,,FALSE,TRUE,Normally there are 32 teeth in the adult human body.,TRUE,Sun Oct 25 2020 22:33:30 GMT+0100 (Central European Standard Time),1603661610993,10.837483333333333,practice_trials,3,practice,undefined
1086,,6572,,"For me, it would have been more intuitive if the TRUE button was on the left side because that might lead to unwanted answers. And this is in case you are not investigating the positioning of the buttons. And if you are, maybe it would have been helpful to ask if participants are left or right-handed.\n\nIt was an interesting experiment :)",none,true,Higher Degree,1603662261242,42,female,,FALSE,TRUE,"William Shakespeare was an English poet, playwright and actor, regarded as the greatest writer in the English language.",TRUE,Sun Oct 25 2020 22:33:30 GMT+0100 (Central European Standard Time),1603661610993,10.837483333333333,practice_trials,4,practice,undefined
1086,,3457,,"For me, it would have been more intuitive if the TRUE button was on the left side because that might lead to unwanted answers. And this is in case you are not investigating the positioning of the buttons. And if you are, maybe it would have been helpful to ask if participants are left or right-handed.\n\nIt was an interesting experiment :)",none,false,Higher Degree,1603662261242,42,female,,FALSE,TRUE,Spain is a country in Asia.,FALSE,Sun Oct 25 2020 22:33:30 GMT+0100 (Central European Standard Time),1603661610993,10.837483333333333,practice_trials,5,practice,undefined
1086,,9644,,"For me, it would have been more intuitive if the TRUE button was on the left side because that might lead to unwanted answers. And this is in case you are not investigating the positioning of the buttons. And if you are, maybe it would have been helpful to ask if participants are left or right-handed.\n\nIt was an interesting experiment :)",none,true,Higher Degree,1603662261242,42,female,,FALSE,TRUE,The Sun is in the centre of the Solar System.,TRUE,Sun Oct 25 2020 22:33:30 GMT+0100 (Central European Standard Time),1603661610993,10.837483333333333,main_trials,1,filler,none
1086,,2693,,"For me, it would have been more intuitive if the TRUE button was on the left side because that might lead to unwanted answers. And this is in case you are not investigating the positioning of the buttons. And if you are, maybe it would have been helpful to ask if participants are left or right-handed.\n\nIt was an interesting experiment :)",none,true,Higher Degree,1603662261242,42,female,,FALSE,TRUE,Currywurst is a popular fast food in Germany.,TRUE,Sun Oct 25 2020 22:33:30 GMT+0100 (Central European Standard Time),1603661610993,10.837483333333333,main_trials,2,filler,none
1086,,2848,,"For me, it would have been more intuitive if the TRUE button was on the left side because that might lead to unwanted answers. And this is in case you are not investigating the positioning of the buttons. And if you are, maybe it would have been helpful to ask if participants are left or right-handed.\n\nIt was an interesting experiment :)",0,false,Higher Degree,1603662261242,42,female,,FALSE,TRUE,The volcanoes of Germany dominate the landscape.,FALSE,Sun Oct 25 2020 22:33:30 GMT+0100 (Central European Standard Time),1603661610993,10.837483333333333,main_trials,3,main,5
1086,,5021,,"For me, it would have been more intuitive if the TRUE button was on the left side because that might lead to unwanted answers. And this is in case you are not investigating the positioning of the buttons. And if you are, maybe it would have been helpful to ask if participants are left or right-handed.\n\nIt was an interesting experiment :)",none,true,Higher Degree,1603662261242,42,female,,FALSE,TRUE,Alzheimer’s Disease is a brain disorder that affects memory.,TRUE,Sun Oct 25 2020 22:33:30 GMT+0100 (Central European Standard Time),1603661610993,10.837483333333333,main_trials,4,filler,none
