submission_id,key_p_is_for,timeSpent,trial_number,condition,correctness,RT
1302,square,7.883233333333333,1,incongruent,correct,542
1302,square,7.883233333333333,2,incongruent,correct,438
1302,square,7.883233333333333,3,incongruent,correct,429
1302,square,7.883233333333333,4,congruent,correct,456
1302,square,7.883233333333333,5,incongruent,correct,422
1302,square,7.883233333333333,6,incongruent,correct,341
1302,square,7.883233333333333,7,incongruent,correct,407
1302,square,7.883233333333333,8,congruent,correct,424
1302,square,7.883233333333333,9,incongruent,correct,336
1302,square,7.883233333333333,10,incongruent,correct,360
1302,square,7.883233333333333,11,congruent,incorrect,354
1302,square,7.883233333333333,12,congruent,correct,14008
1302,square,7.883233333333333,13,congruent,correct,476
1302,square,7.883233333333333,14,incongruent,correct,432
1302,square,7.883233333333333,15,congruent,correct,469
1302,square,7.883233333333333,16,incongruent,correct,488
1302,square,7.883233333333333,17,incongruent,correct,380
1302,square,7.883233333333333,18,congruent,correct,470
1302,square,7.883233333333333,19,congruent,correct,346
1302,square,7.883233333333333,20,incongruent,correct,438
1302,square,7.883233333333333,1,incongruent,correct,524
1302,square,7.883233333333333,2,incongruent,correct,448
1302,square,7.883233333333333,3,incongruent,correct,360
1302,square,7.883233333333333,4,incongruent,correct,420
1302,square,7.883233333333333,5,incongruent,correct,402
1302,square,7.883233333333333,6,incongruent,correct,353
1302,square,7.883233333333333,7,incongruent,correct,395
1302,square,7.883233333333333,8,incongruent,incorrect,389
1302,square,7.883233333333333,9,congruent,correct,622
1302,square,7.883233333333333,10,incongruent,correct,465
1302,square,7.883233333333333,11,congruent,correct,409
1302,square,7.883233333333333,12,incongruent,correct,394
1302,square,7.883233333333333,13,incongruent,correct,446
1302,square,7.883233333333333,14,congruent,correct,542
1302,square,7.883233333333333,15,congruent,correct,349
1302,square,7.883233333333333,16,incongruent,correct,441
1302,square,7.883233333333333,17,incongruent,correct,411
1302,square,7.883233333333333,18,incongruent,correct,349
1302,square,7.883233333333333,19,incongruent,correct,326
1302,square,7.883233333333333,20,congruent,correct,400
1302,square,7.883233333333333,21,incongruent,correct,416
1302,square,7.883233333333333,22,congruent,correct,410
1302,square,7.883233333333333,23,congruent,correct,353
1302,square,7.883233333333333,24,incongruent,correct,423
1302,square,7.883233333333333,25,incongruent,correct,624
1302,square,7.883233333333333,26,congruent,correct,301
1302,square,7.883233333333333,27,congruent,correct,325
1302,square,7.883233333333333,28,incongruent,correct,451
1302,square,7.883233333333333,29,incongruent,correct,497
1302,square,7.883233333333333,30,incongruent,correct,402
1302,square,7.883233333333333,31,congruent,correct,315
1302,square,7.883233333333333,32,incongruent,correct,359
1302,square,7.883233333333333,33,congruent,incorrect,361
1302,square,7.883233333333333,34,congruent,correct,329
1302,square,7.883233333333333,35,incongruent,correct,428
1302,square,7.883233333333333,36,incongruent,correct,336
1302,square,7.883233333333333,37,congruent,correct,333
1302,square,7.883233333333333,38,congruent,correct,338
1302,square,7.883233333333333,39,incongruent,correct,516
1302,square,7.883233333333333,40,congruent,correct,363
1302,square,7.883233333333333,41,incongruent,correct,412
1302,square,7.883233333333333,42,congruent,correct,465
1302,square,7.883233333333333,43,incongruent,correct,477
1302,square,7.883233333333333,44,incongruent,correct,400
1302,square,7.883233333333333,45,incongruent,correct,415
1302,square,7.883233333333333,46,incongruent,correct,428
1302,square,7.883233333333333,47,congruent,correct,340
1302,square,7.883233333333333,48,incongruent,correct,555
1302,square,7.883233333333333,49,incongruent,correct,323
1302,square,7.883233333333333,50,congruent,correct,469
1302,square,7.883233333333333,51,congruent,correct,327
1302,square,7.883233333333333,52,incongruent,correct,362
1302,square,7.883233333333333,53,congruent,correct,350
1302,square,7.883233333333333,54,congruent,correct,339
1302,square,7.883233333333333,55,congruent,correct,459
1302,square,7.883233333333333,56,congruent,correct,302
1302,square,7.883233333333333,57,congruent,correct,344
1302,square,7.883233333333333,58,incongruent,correct,403
1302,square,7.883233333333333,59,congruent,correct,292
1302,square,7.883233333333333,60,incongruent,incorrect,286
1302,square,7.883233333333333,61,congruent,correct,323
1302,square,7.883233333333333,62,congruent,correct,375
1302,square,7.883233333333333,63,congruent,correct,358
1302,square,7.883233333333333,64,incongruent,correct,382
1302,square,7.883233333333333,65,congruent,correct,375
1302,square,7.883233333333333,66,incongruent,correct,414
1302,square,7.883233333333333,67,congruent,correct,395
1302,square,7.883233333333333,68,congruent,correct,287
1302,square,7.883233333333333,69,incongruent,correct,367
1302,square,7.883233333333333,70,congruent,correct,391
1302,square,7.883233333333333,71,congruent,correct,361
1302,square,7.883233333333333,72,incongruent,incorrect,321
1302,square,7.883233333333333,73,incongruent,correct,458
1302,square,7.883233333333333,74,congruent,correct,452
1302,square,7.883233333333333,75,congruent,correct,343
1302,square,7.883233333333333,76,incongruent,correct,490
1302,square,7.883233333333333,77,incongruent,correct,399
1302,square,7.883233333333333,78,incongruent,correct,391
1302,square,7.883233333333333,79,congruent,correct,478
1302,square,7.883233333333333,80,incongruent,correct,3496
1302,square,7.883233333333333,81,incongruent,correct,414
1302,square,7.883233333333333,82,congruent,correct,299
1302,square,7.883233333333333,83,incongruent,correct,424
1302,square,7.883233333333333,84,congruent,correct,444
1302,square,7.883233333333333,85,congruent,correct,311
1302,square,7.883233333333333,86,congruent,correct,283
1302,square,7.883233333333333,87,incongruent,correct,459
1302,square,7.883233333333333,88,congruent,correct,282
1302,square,7.883233333333333,89,incongruent,correct,433
1302,square,7.883233333333333,90,incongruent,correct,363
1302,square,7.883233333333333,91,congruent,correct,378
1302,square,7.883233333333333,92,congruent,correct,329
1302,square,7.883233333333333,93,incongruent,correct,406
1302,square,7.883233333333333,94,congruent,correct,316
1302,square,7.883233333333333,95,incongruent,incorrect,338
1302,square,7.883233333333333,96,incongruent,correct,475
1302,square,7.883233333333333,97,incongruent,correct,363
1302,square,7.883233333333333,98,incongruent,incorrect,250
1302,square,7.883233333333333,99,congruent,correct,353
1302,square,7.883233333333333,100,congruent,correct,332
1301,square,9.036333333333333,1,congruent,correct,2177
1301,square,9.036333333333333,2,congruent,correct,1400
1301,square,9.036333333333333,3,incongruent,correct,780
1301,square,9.036333333333333,4,incongruent,correct,492
1301,square,9.036333333333333,5,congruent,correct,570
1301,square,9.036333333333333,6,congruent,correct,474
1301,square,9.036333333333333,7,incongruent,correct,523
1301,square,9.036333333333333,8,congruent,correct,499
1301,square,9.036333333333333,9,incongruent,incorrect,427
1301,square,9.036333333333333,10,congruent,incorrect,1529
1301,square,9.036333333333333,11,incongruent,incorrect,689
1301,square,9.036333333333333,12,congruent,correct,1919
1301,square,9.036333333333333,13,incongruent,correct,745
1301,square,9.036333333333333,14,incongruent,correct,564
1301,square,9.036333333333333,15,incongruent,correct,572
1301,square,9.036333333333333,16,congruent,correct,694
1301,square,9.036333333333333,17,incongruent,incorrect,1135
1301,square,9.036333333333333,18,congruent,correct,3666
1301,square,9.036333333333333,19,incongruent,correct,1930
1301,square,9.036333333333333,20,congruent,correct,572
1301,square,9.036333333333333,1,incongruent,correct,755
1301,square,9.036333333333333,2,incongruent,correct,560
1301,square,9.036333333333333,3,incongruent,correct,600
1301,square,9.036333333333333,4,incongruent,incorrect,842
1301,square,9.036333333333333,5,incongruent,incorrect,579
1301,square,9.036333333333333,6,congruent,incorrect,814
1301,square,9.036333333333333,7,congruent,correct,751
1301,square,9.036333333333333,8,congruent,correct,661
1301,square,9.036333333333333,9,incongruent,correct,677
1301,square,9.036333333333333,10,congruent,correct,1864
1301,square,9.036333333333333,11,congruent,correct,657
1301,square,9.036333333333333,12,incongruent,correct,808
1301,square,9.036333333333333,13,congruent,correct,548
1301,square,9.036333333333333,14,incongruent,incorrect,1717
1301,square,9.036333333333333,15,congruent,correct,1018
1301,square,9.036333333333333,16,congruent,correct,463
1301,square,9.036333333333333,17,congruent,correct,556
1301,square,9.036333333333333,18,incongruent,correct,857
1301,square,9.036333333333333,19,incongruent,correct,622
1301,square,9.036333333333333,20,incongruent,correct,581
1301,square,9.036333333333333,21,congruent,correct,517
1301,square,9.036333333333333,22,congruent,correct,412
1301,square,9.036333333333333,23,congruent,correct,366
1301,square,9.036333333333333,24,congruent,correct,480
1301,square,9.036333333333333,25,incongruent,correct,558
1301,square,9.036333333333333,26,incongruent,incorrect,739
1301,square,9.036333333333333,27,congruent,correct,799
1301,square,9.036333333333333,28,congruent,correct,655
1301,square,9.036333333333333,29,incongruent,correct,637
1301,square,9.036333333333333,30,congruent,correct,841
1301,square,9.036333333333333,31,congruent,correct,486
1301,square,9.036333333333333,32,incongruent,correct,653
1301,square,9.036333333333333,33,congruent,correct,934
1301,square,9.036333333333333,34,congruent,incorrect,712
1301,square,9.036333333333333,35,congruent,correct,735
1301,square,9.036333333333333,36,congruent,correct,1264
1301,square,9.036333333333333,37,incongruent,correct,858
1301,square,9.036333333333333,38,congruent,correct,719
1301,square,9.036333333333333,39,congruent,correct,541
1301,square,9.036333333333333,40,congruent,correct,484
1301,square,9.036333333333333,41,incongruent,incorrect,474
1301,square,9.036333333333333,42,congruent,correct,740
1301,square,9.036333333333333,43,congruent,correct,483
1301,square,9.036333333333333,44,congruent,correct,1001
1301,square,9.036333333333333,45,incongruent,correct,923
1301,square,9.036333333333333,46,incongruent,correct,2580
1301,square,9.036333333333333,47,incongruent,correct,1989
1301,square,9.036333333333333,48,congruent,correct,1138
1301,square,9.036333333333333,49,incongruent,correct,1466
1301,square,9.036333333333333,50,congruent,correct,905
1301,square,9.036333333333333,51,congruent,correct,663
1301,square,9.036333333333333,52,congruent,correct,1337
1301,square,9.036333333333333,53,congruent,correct,531
1301,square,9.036333333333333,54,congruent,correct,542
1301,square,9.036333333333333,55,congruent,correct,450
1301,square,9.036333333333333,56,incongruent,correct,817
1301,square,9.036333333333333,57,congruent,correct,677
1301,square,9.036333333333333,58,incongruent,correct,836
1301,square,9.036333333333333,59,congruent,correct,518
1301,square,9.036333333333333,60,incongruent,correct,597
1301,square,9.036333333333333,61,incongruent,correct,500
1301,square,9.036333333333333,62,congruent,correct,812
1301,square,9.036333333333333,63,incongruent,correct,2861
1301,square,9.036333333333333,64,incongruent,correct,645
1301,square,9.036333333333333,65,incongruent,correct,534
1301,square,9.036333333333333,66,incongruent,correct,553
1301,square,9.036333333333333,67,congruent,correct,497
1301,square,9.036333333333333,68,incongruent,correct,815
1301,square,9.036333333333333,69,incongruent,correct,850
1301,square,9.036333333333333,70,incongruent,correct,803
1301,square,9.036333333333333,71,congruent,correct,741
1301,square,9.036333333333333,72,incongruent,correct,492
1301,square,9.036333333333333,73,incongruent,correct,448
1301,square,9.036333333333333,74,congruent,correct,516
1301,square,9.036333333333333,75,incongruent,correct,539
1301,square,9.036333333333333,76,incongruent,correct,486
1301,square,9.036333333333333,77,congruent,correct,461
1301,square,9.036333333333333,78,congruent,correct,402
1301,square,9.036333333333333,79,incongruent,incorrect,408
1301,square,9.036333333333333,80,congruent,correct,791
1301,square,9.036333333333333,81,congruent,incorrect,516
1301,square,9.036333333333333,82,congruent,correct,836
1301,square,9.036333333333333,83,congruent,correct,649
1301,square,9.036333333333333,84,incongruent,correct,678
1301,square,9.036333333333333,85,incongruent,correct,809
1301,square,9.036333333333333,86,congruent,correct,1542
1301,square,9.036333333333333,87,congruent,correct,1009
1301,square,9.036333333333333,88,congruent,correct,895
1301,square,9.036333333333333,89,incongruent,correct,640
1301,square,9.036333333333333,90,congruent,correct,594
1301,square,9.036333333333333,91,congruent,correct,554
1301,square,9.036333333333333,92,congruent,correct,591
1301,square,9.036333333333333,93,incongruent,incorrect,541
1301,square,9.036333333333333,94,incongruent,correct,2801
1301,square,9.036333333333333,95,congruent,correct,3230
1301,square,9.036333333333333,96,congruent,correct,669
1301,square,9.036333333333333,97,congruent,correct,916
1301,square,9.036333333333333,98,congruent,correct,1512
1301,square,9.036333333333333,99,incongruent,correct,849
1301,square,9.036333333333333,100,incongruent,correct,464
1300,square,8.681716666666667,1,congruent,correct,26212
1300,square,8.681716666666667,2,congruent,correct,435
1300,square,8.681716666666667,3,incongruent,incorrect,383
1300,square,8.681716666666667,4,incongruent,correct,549
1300,square,8.681716666666667,5,incongruent,correct,365
1300,square,8.681716666666667,6,incongruent,incorrect,353
1300,square,8.681716666666667,7,congruent,correct,642
1300,square,8.681716666666667,8,incongruent,correct,640
1300,square,8.681716666666667,9,incongruent,correct,471
1300,square,8.681716666666667,10,incongruent,correct,385
1300,square,8.681716666666667,11,congruent,correct,509
1300,square,8.681716666666667,12,congruent,correct,402
1300,square,8.681716666666667,13,incongruent,incorrect,385
1300,square,8.681716666666667,14,congruent,correct,454
1300,square,8.681716666666667,15,congruent,correct,391
1300,square,8.681716666666667,16,incongruent,correct,556
1300,square,8.681716666666667,17,congruent,correct,341
1300,square,8.681716666666667,18,congruent,correct,365
1300,square,8.681716666666667,19,congruent,correct,397
1300,square,8.681716666666667,20,congruent,correct,380
1300,square,8.681716666666667,1,incongruent,correct,591
1300,square,8.681716666666667,2,congruent,correct,318
1300,square,8.681716666666667,3,incongruent,incorrect,302
1300,square,8.681716666666667,4,incongruent,correct,505
1300,square,8.681716666666667,5,incongruent,correct,475
1300,square,8.681716666666667,6,incongruent,correct,467
1300,square,8.681716666666667,7,congruent,correct,400
1300,square,8.681716666666667,8,congruent,correct,387
1300,square,8.681716666666667,9,congruent,correct,363
1300,square,8.681716666666667,10,incongruent,correct,417
1300,square,8.681716666666667,11,incongruent,correct,414
1300,square,8.681716666666667,12,congruent,correct,362
1300,square,8.681716666666667,13,incongruent,correct,455
1300,square,8.681716666666667,14,congruent,correct,399
1300,square,8.681716666666667,15,congruent,correct,433
1300,square,8.681716666666667,16,incongruent,correct,367
1300,square,8.681716666666667,17,incongruent,correct,415
1300,square,8.681716666666667,18,incongruent,correct,347
1300,square,8.681716666666667,19,congruent,correct,474
1300,square,8.681716666666667,20,incongruent,correct,438
1300,square,8.681716666666667,21,incongruent,correct,479
1300,square,8.681716666666667,22,congruent,incorrect,378
1300,square,8.681716666666667,23,congruent,correct,599
1300,square,8.681716666666667,24,incongruent,correct,434
1300,square,8.681716666666667,25,incongruent,correct,395
1300,square,8.681716666666667,26,incongruent,correct,384
1300,square,8.681716666666667,27,incongruent,correct,416
1300,square,8.681716666666667,28,congruent,correct,409
1300,square,8.681716666666667,29,incongruent,correct,385
1300,square,8.681716666666667,30,congruent,correct,392
1300,square,8.681716666666667,31,congruent,correct,401
1300,square,8.681716666666667,32,congruent,correct,359
1300,square,8.681716666666667,33,incongruent,correct,479
1300,square,8.681716666666667,34,incongruent,correct,439
1300,square,8.681716666666667,35,incongruent,correct,407
1300,square,8.681716666666667,36,congruent,correct,410
1300,square,8.681716666666667,37,incongruent,correct,510
1300,square,8.681716666666667,38,congruent,correct,493
1300,square,8.681716666666667,39,congruent,correct,370
1300,square,8.681716666666667,40,incongruent,correct,490
1300,square,8.681716666666667,41,congruent,correct,621
1300,square,8.681716666666667,42,incongruent,correct,496
1300,square,8.681716666666667,43,incongruent,correct,414
1300,square,8.681716666666667,44,incongruent,correct,417
1300,square,8.681716666666667,45,congruent,correct,379
1300,square,8.681716666666667,46,incongruent,correct,604
1300,square,8.681716666666667,47,congruent,correct,388
1300,square,8.681716666666667,48,congruent,correct,401
1300,square,8.681716666666667,49,congruent,correct,416
1300,square,8.681716666666667,50,congruent,correct,401
1300,square,8.681716666666667,51,congruent,correct,404
1300,square,8.681716666666667,52,incongruent,correct,395
1300,square,8.681716666666667,53,incongruent,correct,326
1300,square,8.681716666666667,54,incongruent,correct,451
1300,square,8.681716666666667,55,congruent,correct,451
1300,square,8.681716666666667,56,congruent,correct,443
1300,square,8.681716666666667,57,incongruent,correct,431
1300,square,8.681716666666667,58,congruent,correct,451
1300,square,8.681716666666667,59,congruent,correct,407
1300,square,8.681716666666667,60,congruent,correct,376
1300,square,8.681716666666667,61,incongruent,correct,486
1300,square,8.681716666666667,62,congruent,correct,405
1300,square,8.681716666666667,63,incongruent,correct,448
1300,square,8.681716666666667,64,incongruent,correct,529
1300,square,8.681716666666667,65,congruent,correct,523
1300,square,8.681716666666667,66,congruent,correct,422
1300,square,8.681716666666667,67,incongruent,correct,462
1300,square,8.681716666666667,68,incongruent,correct,452
1300,square,8.681716666666667,69,congruent,correct,337
1300,square,8.681716666666667,70,incongruent,incorrect,376
1300,square,8.681716666666667,71,incongruent,correct,570
1300,square,8.681716666666667,72,congruent,correct,480
1300,square,8.681716666666667,73,incongruent,correct,453
1300,square,8.681716666666667,74,incongruent,correct,510
1300,square,8.681716666666667,75,incongruent,correct,439
1300,square,8.681716666666667,76,congruent,correct,463
1300,square,8.681716666666667,77,incongruent,correct,428
1300,square,8.681716666666667,78,congruent,correct,445
1300,square,8.681716666666667,79,incongruent,correct,425
1300,square,8.681716666666667,80,incongruent,correct,448
1300,square,8.681716666666667,81,incongruent,correct,366
1300,square,8.681716666666667,82,congruent,correct,408
1300,square,8.681716666666667,83,incongruent,correct,443
1300,square,8.681716666666667,84,incongruent,correct,379
1300,square,8.681716666666667,85,congruent,incorrect,382
1300,square,8.681716666666667,86,congruent,correct,410
1300,square,8.681716666666667,87,incongruent,correct,555
1300,square,8.681716666666667,88,congruent,correct,481
1300,square,8.681716666666667,89,incongruent,correct,420
1300,square,8.681716666666667,90,congruent,correct,376
1300,square,8.681716666666667,91,congruent,correct,406
1300,square,8.681716666666667,92,incongruent,correct,401
1300,square,8.681716666666667,93,congruent,correct,399
1300,square,8.681716666666667,94,congruent,correct,402
1300,square,8.681716666666667,95,incongruent,correct,458
1300,square,8.681716666666667,96,incongruent,correct,432
1300,square,8.681716666666667,97,incongruent,correct,383
1300,square,8.681716666666667,98,incongruent,correct,412
1300,square,8.681716666666667,99,congruent,correct,429
1300,square,8.681716666666667,100,incongruent,correct,456
1299,square,7.55925,1,congruent,correct,8534
1299,square,7.55925,2,incongruent,correct,837
1299,square,7.55925,3,incongruent,correct,662
1299,square,7.55925,4,incongruent,correct,685
1299,square,7.55925,5,congruent,correct,554
1299,square,7.55925,6,congruent,correct,542
1299,square,7.55925,7,congruent,correct,527
1299,square,7.55925,8,congruent,correct,549
1299,square,7.55925,9,incongruent,incorrect,537
1299,square,7.55925,10,incongruent,incorrect,560
1299,square,7.55925,11,congruent,incorrect,1014
1299,square,7.55925,12,congruent,incorrect,817
1299,square,7.55925,13,incongruent,incorrect,591
1299,square,7.55925,14,congruent,incorrect,861
1299,square,7.55925,15,incongruent,incorrect,716
1299,square,7.55925,16,congruent,correct,1339
1299,square,7.55925,17,incongruent,correct,843
1299,square,7.55925,18,congruent,incorrect,734
1299,square,7.55925,19,congruent,correct,1219
1299,square,7.55925,20,incongruent,correct,561
1299,square,7.55925,1,incongruent,correct,899
1299,square,7.55925,2,congruent,correct,764
1299,square,7.55925,3,incongruent,correct,548
1299,square,7.55925,4,congruent,incorrect,719
1299,square,7.55925,5,incongruent,correct,931
1299,square,7.55925,6,congruent,correct,2300
1299,square,7.55925,7,incongruent,correct,785
1299,square,7.55925,8,congruent,correct,769
1299,square,7.55925,9,incongruent,correct,620
1299,square,7.55925,10,congruent,correct,549
1299,square,7.55925,11,congruent,correct,664
1299,square,7.55925,12,congruent,correct,380
1299,square,7.55925,13,congruent,incorrect,820
1299,square,7.55925,14,incongruent,correct,628
1299,square,7.55925,15,congruent,correct,598
1299,square,7.55925,16,congruent,correct,557
1299,square,7.55925,17,incongruent,correct,728
1299,square,7.55925,18,congruent,correct,693
1299,square,7.55925,19,congruent,correct,446
1299,square,7.55925,20,congruent,correct,563
1299,square,7.55925,21,congruent,correct,462
1299,square,7.55925,22,incongruent,incorrect,640
1299,square,7.55925,23,congruent,correct,702
1299,square,7.55925,24,incongruent,correct,576
1299,square,7.55925,25,congruent,correct,548
1299,square,7.55925,26,congruent,correct,399
1299,square,7.55925,27,congruent,correct,496
1299,square,7.55925,28,incongruent,correct,511
1299,square,7.55925,29,congruent,correct,689
1299,square,7.55925,30,incongruent,correct,635
1299,square,7.55925,31,incongruent,correct,590
1299,square,7.55925,32,incongruent,correct,609
1299,square,7.55925,33,congruent,incorrect,630
1299,square,7.55925,34,incongruent,correct,789
1299,square,7.55925,35,incongruent,correct,751
1299,square,7.55925,36,incongruent,correct,679
1299,square,7.55925,37,incongruent,correct,635
1299,square,7.55925,38,incongruent,correct,583
1299,square,7.55925,39,congruent,correct,666
1299,square,7.55925,40,congruent,correct,442
1299,square,7.55925,41,congruent,correct,870
1299,square,7.55925,42,incongruent,correct,535
1299,square,7.55925,43,congruent,correct,462
1299,square,7.55925,44,congruent,correct,414
1299,square,7.55925,45,incongruent,correct,673
1299,square,7.55925,46,incongruent,correct,549
1299,square,7.55925,47,incongruent,correct,506
1299,square,7.55925,48,incongruent,correct,518
1299,square,7.55925,49,incongruent,correct,564
1299,square,7.55925,50,incongruent,correct,732
1299,square,7.55925,51,incongruent,correct,698
1299,square,7.55925,52,incongruent,correct,736
1299,square,7.55925,53,congruent,correct,780
1299,square,7.55925,54,congruent,correct,604
1299,square,7.55925,55,incongruent,correct,616
1299,square,7.55925,56,incongruent,correct,805
1299,square,7.55925,57,congruent,correct,752
1299,square,7.55925,58,incongruent,correct,665
1299,square,7.55925,59,incongruent,correct,642
1299,square,7.55925,60,incongruent,correct,515
1299,square,7.55925,61,congruent,incorrect,622
1299,square,7.55925,62,incongruent,correct,844
1299,square,7.55925,63,congruent,incorrect,509
1299,square,7.55925,64,congruent,correct,535
1299,square,7.55925,65,incongruent,correct,712
1299,square,7.55925,66,incongruent,correct,588
1299,square,7.55925,67,incongruent,correct,750
1299,square,7.55925,68,incongruent,correct,594
1299,square,7.55925,69,incongruent,correct,615
1299,square,7.55925,70,incongruent,correct,590
1299,square,7.55925,71,incongruent,correct,736
1299,square,7.55925,72,incongruent,correct,626
1299,square,7.55925,73,incongruent,correct,536
1299,square,7.55925,74,incongruent,correct,492
1299,square,7.55925,75,congruent,correct,554
1299,square,7.55925,76,congruent,correct,414
1299,square,7.55925,77,incongruent,correct,618
1299,square,7.55925,78,incongruent,correct,525
1299,square,7.55925,79,incongruent,correct,527
1299,square,7.55925,80,congruent,incorrect,602
1299,square,7.55925,81,incongruent,correct,838
1299,square,7.55925,82,congruent,correct,699
1299,square,7.55925,83,incongruent,correct,726
1299,square,7.55925,84,incongruent,correct,622
1299,square,7.55925,85,congruent,correct,628
1299,square,7.55925,86,congruent,correct,535
1299,square,7.55925,87,incongruent,correct,611
1299,square,7.55925,88,incongruent,correct,533
1299,square,7.55925,89,incongruent,correct,425
1299,square,7.55925,90,incongruent,correct,628
1299,square,7.55925,91,congruent,correct,523
1299,square,7.55925,92,incongruent,correct,587
1299,square,7.55925,93,congruent,correct,711
1299,square,7.55925,94,incongruent,correct,755
1299,square,7.55925,95,congruent,correct,1100
1299,square,7.55925,96,incongruent,correct,773
1299,square,7.55925,97,incongruent,correct,471
1299,square,7.55925,98,congruent,correct,896
1299,square,7.55925,99,congruent,correct,757
1299,square,7.55925,100,congruent,correct,519
1298,square,8.898283333333334,1,incongruent,correct,2277
1298,square,8.898283333333334,2,congruent,correct,820
1298,square,8.898283333333334,3,congruent,correct,629
1298,square,8.898283333333334,4,incongruent,correct,581
1298,square,8.898283333333334,5,incongruent,correct,653
1298,square,8.898283333333334,6,congruent,correct,503
1298,square,8.898283333333334,7,congruent,correct,479
1298,square,8.898283333333334,8,congruent,correct,485
1298,square,8.898283333333334,9,incongruent,correct,618
1298,square,8.898283333333334,10,congruent,correct,441
1298,square,8.898283333333334,11,incongruent,correct,499
1298,square,8.898283333333334,12,incongruent,correct,539
1298,square,8.898283333333334,13,incongruent,correct,407
1298,square,8.898283333333334,14,incongruent,correct,551
1298,square,8.898283333333334,15,congruent,correct,821
1298,square,8.898283333333334,16,incongruent,correct,439
1298,square,8.898283333333334,17,incongruent,incorrect,453
1298,square,8.898283333333334,18,incongruent,correct,694
1298,square,8.898283333333334,19,incongruent,correct,603
1298,square,8.898283333333334,20,incongruent,correct,533
1298,square,8.898283333333334,1,incongruent,correct,2858
1298,square,8.898283333333334,2,congruent,correct,1117
1298,square,8.898283333333334,3,incongruent,correct,683
1298,square,8.898283333333334,4,congruent,correct,1487
1298,square,8.898283333333334,5,incongruent,correct,513
1298,square,8.898283333333334,6,incongruent,incorrect,1391
1298,square,8.898283333333334,7,incongruent,correct,807
1298,square,8.898283333333334,8,congruent,correct,583
1298,square,8.898283333333334,9,congruent,correct,936
1298,square,8.898283333333334,10,congruent,correct,574
1298,square,8.898283333333334,11,incongruent,correct,624
1298,square,8.898283333333334,12,incongruent,correct,521
1298,square,8.898283333333334,13,incongruent,correct,896
1298,square,8.898283333333334,14,congruent,correct,769
1298,square,8.898283333333334,15,incongruent,correct,644
1298,square,8.898283333333334,16,congruent,correct,1643
1298,square,8.898283333333334,17,congruent,correct,518
1298,square,8.898283333333334,18,congruent,correct,438
1298,square,8.898283333333334,19,congruent,correct,442
1298,square,8.898283333333334,20,incongruent,correct,549
1298,square,8.898283333333334,21,incongruent,correct,446
1298,square,8.898283333333334,22,congruent,correct,506
1298,square,8.898283333333334,23,incongruent,incorrect,414
1298,square,8.898283333333334,24,incongruent,correct,548
1298,square,8.898283333333334,25,incongruent,incorrect,423
1298,square,8.898283333333334,26,incongruent,correct,617
1298,square,8.898283333333334,27,congruent,correct,599
1298,square,8.898283333333334,28,incongruent,correct,636
1298,square,8.898283333333334,29,congruent,correct,642
1298,square,8.898283333333334,30,incongruent,correct,846
1298,square,8.898283333333334,31,incongruent,correct,857
1298,square,8.898283333333334,32,incongruent,correct,535
1298,square,8.898283333333334,33,incongruent,correct,526
1298,square,8.898283333333334,34,incongruent,incorrect,647
1298,square,8.898283333333334,35,incongruent,correct,540
1298,square,8.898283333333334,36,incongruent,correct,374
1298,square,8.898283333333334,37,congruent,correct,441
1298,square,8.898283333333334,38,incongruent,correct,764
1298,square,8.898283333333334,39,congruent,correct,466
1298,square,8.898283333333334,40,incongruent,correct,479
1298,square,8.898283333333334,41,incongruent,correct,760
1298,square,8.898283333333334,42,incongruent,correct,714
1298,square,8.898283333333334,43,incongruent,correct,440
1298,square,8.898283333333334,44,congruent,correct,714
1298,square,8.898283333333334,45,incongruent,correct,712
1298,square,8.898283333333334,46,congruent,correct,740
1298,square,8.898283333333334,47,congruent,correct,458
1298,square,8.898283333333334,48,congruent,correct,419
1298,square,8.898283333333334,49,incongruent,correct,487
1298,square,8.898283333333334,50,incongruent,incorrect,492
1298,square,8.898283333333334,51,congruent,correct,449
1298,square,8.898283333333334,52,incongruent,correct,513
1298,square,8.898283333333334,53,incongruent,correct,410
1298,square,8.898283333333334,54,incongruent,correct,593
1298,square,8.898283333333334,55,congruent,correct,529
1298,square,8.898283333333334,56,congruent,correct,548
1298,square,8.898283333333334,57,incongruent,correct,387
1298,square,8.898283333333334,58,incongruent,correct,411
1298,square,8.898283333333334,59,incongruent,incorrect,487
1298,square,8.898283333333334,60,incongruent,correct,574
1298,square,8.898283333333334,61,congruent,incorrect,725
1298,square,8.898283333333334,62,congruent,correct,371
1298,square,8.898283333333334,63,incongruent,correct,615
1298,square,8.898283333333334,64,incongruent,correct,657
1298,square,8.898283333333334,65,congruent,incorrect,567
1298,square,8.898283333333334,66,incongruent,correct,591
1298,square,8.898283333333334,67,incongruent,correct,606
1298,square,8.898283333333334,68,incongruent,correct,467
1298,square,8.898283333333334,69,incongruent,correct,590
1298,square,8.898283333333334,70,congruent,incorrect,492
1298,square,8.898283333333334,71,congruent,incorrect,568
1298,square,8.898283333333334,72,incongruent,correct,666
1298,square,8.898283333333334,73,incongruent,correct,473
1298,square,8.898283333333334,74,congruent,correct,855
1298,square,8.898283333333334,75,incongruent,correct,493
1298,square,8.898283333333334,76,incongruent,correct,400
1298,square,8.898283333333334,77,incongruent,correct,440
1298,square,8.898283333333334,78,incongruent,correct,479
1298,square,8.898283333333334,79,incongruent,correct,586
1298,square,8.898283333333334,80,incongruent,correct,449
1298,square,8.898283333333334,81,incongruent,correct,455
1298,square,8.898283333333334,82,congruent,correct,803
1298,square,8.898283333333334,83,congruent,correct,531
1298,square,8.898283333333334,84,congruent,correct,479
1298,square,8.898283333333334,85,congruent,correct,427
1298,square,8.898283333333334,86,congruent,correct,447
1298,square,8.898283333333334,87,incongruent,incorrect,592
1298,square,8.898283333333334,88,incongruent,correct,486
1298,square,8.898283333333334,89,congruent,correct,497
1298,square,8.898283333333334,90,incongruent,correct,890
1298,square,8.898283333333334,91,incongruent,correct,538
1298,square,8.898283333333334,92,congruent,incorrect,568
1298,square,8.898283333333334,93,incongruent,correct,589
1298,square,8.898283333333334,94,congruent,incorrect,577
1298,square,8.898283333333334,95,incongruent,incorrect,602
1298,square,8.898283333333334,96,incongruent,correct,438
1298,square,8.898283333333334,97,incongruent,incorrect,967
1298,square,8.898283333333334,98,congruent,incorrect,587
1298,square,8.898283333333334,99,congruent,incorrect,474
1298,square,8.898283333333334,100,incongruent,correct,649
1297,square,9.1756,1,congruent,correct,569
1297,square,9.1756,2,congruent,correct,340
1297,square,9.1756,3,incongruent,correct,527
1297,square,9.1756,4,congruent,incorrect,573
1297,square,9.1756,5,incongruent,correct,706
1297,square,9.1756,6,incongruent,correct,502
1297,square,9.1756,7,congruent,correct,473
1297,square,9.1756,8,incongruent,correct,473
1297,square,9.1756,9,congruent,correct,399
1297,square,9.1756,10,congruent,correct,360
1297,square,9.1756,11,congruent,correct,429
1297,square,9.1756,12,congruent,correct,430
1297,square,9.1756,13,congruent,correct,574
1297,square,9.1756,14,incongruent,correct,496
1297,square,9.1756,15,congruent,correct,713
1297,square,9.1756,16,incongruent,correct,498
1297,square,9.1756,17,congruent,correct,491
1297,square,9.1756,18,incongruent,correct,406
1297,square,9.1756,19,incongruent,incorrect,407
1297,square,9.1756,20,incongruent,correct,642
1297,square,9.1756,1,congruent,correct,511
1297,square,9.1756,2,congruent,correct,570
1297,square,9.1756,3,congruent,correct,347
1297,square,9.1756,4,congruent,correct,507
1297,square,9.1756,5,congruent,correct,352
1297,square,9.1756,6,incongruent,correct,440
1297,square,9.1756,7,congruent,correct,385
1297,square,9.1756,8,congruent,correct,394
1297,square,9.1756,9,congruent,incorrect,488
1297,square,9.1756,10,congruent,correct,500
1297,square,9.1756,11,incongruent,correct,665
1297,square,9.1756,12,incongruent,correct,638
1297,square,9.1756,13,incongruent,correct,340
1297,square,9.1756,14,incongruent,correct,454
1297,square,9.1756,15,congruent,correct,486
1297,square,9.1756,16,congruent,correct,462
1297,square,9.1756,17,incongruent,correct,464
1297,square,9.1756,18,congruent,correct,387
1297,square,9.1756,19,congruent,correct,378
1297,square,9.1756,20,incongruent,incorrect,342
1297,square,9.1756,21,congruent,incorrect,522
1297,square,9.1756,22,congruent,correct,490
1297,square,9.1756,23,congruent,correct,582
1297,square,9.1756,24,incongruent,correct,499
1297,square,9.1756,25,incongruent,incorrect,512
1297,square,9.1756,26,incongruent,incorrect,342
1297,square,9.1756,27,congruent,incorrect,473
1297,square,9.1756,28,incongruent,correct,908
1297,square,9.1756,29,incongruent,correct,730
1297,square,9.1756,30,incongruent,correct,540
1297,square,9.1756,31,congruent,correct,492
1297,square,9.1756,32,incongruent,correct,441
1297,square,9.1756,33,congruent,correct,366
1297,square,9.1756,34,congruent,correct,304
1297,square,9.1756,35,incongruent,correct,401
1297,square,9.1756,36,congruent,correct,343
1297,square,9.1756,37,incongruent,correct,382
1297,square,9.1756,38,congruent,correct,374
1297,square,9.1756,39,congruent,correct,394
1297,square,9.1756,40,congruent,incorrect,535
1297,square,9.1756,41,congruent,correct,606
1297,square,9.1756,42,congruent,correct,333
1297,square,9.1756,43,incongruent,correct,459
1297,square,9.1756,44,incongruent,correct,443
1297,square,9.1756,45,congruent,correct,516
1297,square,9.1756,46,congruent,correct,410
1297,square,9.1756,47,incongruent,correct,511
1297,square,9.1756,48,congruent,correct,449
1297,square,9.1756,49,incongruent,correct,426
1297,square,9.1756,50,incongruent,correct,429
1297,square,9.1756,51,incongruent,correct,400
1297,square,9.1756,52,congruent,correct,340
1297,square,9.1756,53,congruent,correct,359
1297,square,9.1756,54,incongruent,correct,904
1297,square,9.1756,55,congruent,correct,417
1297,square,9.1756,56,congruent,correct,456
1297,square,9.1756,57,congruent,correct,416
1297,square,9.1756,58,incongruent,correct,487
1297,square,9.1756,59,incongruent,correct,310
1297,square,9.1756,60,incongruent,correct,430
1297,square,9.1756,61,incongruent,correct,685
1297,square,9.1756,62,congruent,correct,537
1297,square,9.1756,63,congruent,correct,390
1297,square,9.1756,64,incongruent,correct,403
1297,square,9.1756,65,incongruent,correct,385
1297,square,9.1756,66,congruent,correct,391
1297,square,9.1756,67,congruent,correct,439
1297,square,9.1756,68,incongruent,incorrect,377
1297,square,9.1756,69,incongruent,correct,599
1297,square,9.1756,70,incongruent,correct,560
1297,square,9.1756,71,congruent,correct,497
1297,square,9.1756,72,incongruent,correct,441
1297,square,9.1756,73,congruent,correct,389
1297,square,9.1756,74,congruent,correct,479
1297,square,9.1756,75,incongruent,correct,506
1297,square,9.1756,76,congruent,correct,538
1297,square,9.1756,77,incongruent,correct,748
1297,square,9.1756,78,incongruent,correct,418
1297,square,9.1756,79,congruent,correct,436
1297,square,9.1756,80,incongruent,correct,419
1297,square,9.1756,81,incongruent,correct,372
1297,square,9.1756,82,congruent,correct,369
1297,square,9.1756,83,incongruent,correct,333
1297,square,9.1756,84,incongruent,correct,350
1297,square,9.1756,85,incongruent,incorrect,359
1297,square,9.1756,86,congruent,correct,392
1297,square,9.1756,87,incongruent,correct,584
1297,square,9.1756,88,congruent,incorrect,553
1297,square,9.1756,89,incongruent,correct,672
1297,square,9.1756,90,incongruent,correct,598
1297,square,9.1756,91,congruent,correct,434
1297,square,9.1756,92,incongruent,correct,501
1297,square,9.1756,93,incongruent,correct,385
1297,square,9.1756,94,congruent,correct,459
1297,square,9.1756,95,incongruent,correct,440
1297,square,9.1756,96,incongruent,correct,539
1297,square,9.1756,97,congruent,incorrect,418
1297,square,9.1756,98,incongruent,correct,669
1297,square,9.1756,99,congruent,correct,507
1297,square,9.1756,100,incongruent,correct,408
1296,circle,7.1716,1,congruent,correct,1212
1296,circle,7.1716,2,congruent,correct,543
1296,circle,7.1716,3,incongruent,correct,604
1296,circle,7.1716,4,congruent,correct,369
1296,circle,7.1716,5,incongruent,incorrect,464
1296,circle,7.1716,6,congruent,correct,653
1296,circle,7.1716,7,incongruent,correct,577
1296,circle,7.1716,8,incongruent,correct,643
1296,circle,7.1716,9,congruent,correct,548
1296,circle,7.1716,10,incongruent,correct,595
1296,circle,7.1716,11,incongruent,correct,655
1296,circle,7.1716,12,incongruent,correct,537
1296,circle,7.1716,13,incongruent,correct,514
1296,circle,7.1716,14,congruent,correct,508
1296,circle,7.1716,15,congruent,correct,460
1296,circle,7.1716,16,congruent,correct,444
1296,circle,7.1716,17,congruent,correct,503
1296,circle,7.1716,18,incongruent,correct,689
1296,circle,7.1716,19,incongruent,correct,649
1296,circle,7.1716,20,congruent,correct,527
1296,circle,7.1716,1,incongruent,correct,555
1296,circle,7.1716,2,incongruent,correct,427
1296,circle,7.1716,3,incongruent,correct,414
1296,circle,7.1716,4,congruent,correct,429
1296,circle,7.1716,5,congruent,correct,365
1296,circle,7.1716,6,congruent,correct,392
1296,circle,7.1716,7,incongruent,correct,530
1296,circle,7.1716,8,incongruent,correct,433
1296,circle,7.1716,9,incongruent,correct,411
1296,circle,7.1716,10,congruent,correct,526
1296,circle,7.1716,11,congruent,correct,420
1296,circle,7.1716,12,incongruent,correct,472
1296,circle,7.1716,13,congruent,correct,412
1296,circle,7.1716,14,incongruent,correct,427
1296,circle,7.1716,15,incongruent,correct,461
1296,circle,7.1716,16,congruent,correct,439
1296,circle,7.1716,17,congruent,correct,353
1296,circle,7.1716,18,congruent,correct,369
1296,circle,7.1716,19,congruent,correct,350
1296,circle,7.1716,20,incongruent,correct,507
1296,circle,7.1716,21,incongruent,correct,477
1296,circle,7.1716,22,incongruent,correct,393
1296,circle,7.1716,23,incongruent,correct,407
1296,circle,7.1716,24,incongruent,correct,458
1296,circle,7.1716,25,incongruent,correct,551
1296,circle,7.1716,26,incongruent,correct,432
1296,circle,7.1716,27,incongruent,correct,588
1296,circle,7.1716,28,incongruent,correct,447
1296,circle,7.1716,29,incongruent,correct,392
1296,circle,7.1716,30,incongruent,correct,341
1296,circle,7.1716,31,incongruent,correct,424
1296,circle,7.1716,32,congruent,incorrect,439
1296,circle,7.1716,33,incongruent,correct,477
1296,circle,7.1716,34,incongruent,correct,454
1296,circle,7.1716,35,incongruent,correct,437
1296,circle,7.1716,36,congruent,correct,473
1296,circle,7.1716,37,incongruent,correct,498
1296,circle,7.1716,38,congruent,correct,515
1296,circle,7.1716,39,incongruent,correct,595
1296,circle,7.1716,40,incongruent,correct,384
1296,circle,7.1716,41,congruent,correct,567
1296,circle,7.1716,42,congruent,correct,464
1296,circle,7.1716,43,incongruent,correct,464
1296,circle,7.1716,44,congruent,incorrect,589
1296,circle,7.1716,45,congruent,correct,518
1296,circle,7.1716,46,incongruent,correct,661
1296,circle,7.1716,47,congruent,correct,467
1296,circle,7.1716,48,congruent,correct,383
1296,circle,7.1716,49,incongruent,correct,519
1296,circle,7.1716,50,incongruent,correct,454
1296,circle,7.1716,51,incongruent,correct,843
1296,circle,7.1716,52,congruent,correct,555
1296,circle,7.1716,53,congruent,correct,354
1296,circle,7.1716,54,incongruent,incorrect,422
1296,circle,7.1716,55,congruent,correct,414
1296,circle,7.1716,56,congruent,correct,635
1296,circle,7.1716,57,congruent,correct,422
1296,circle,7.1716,58,congruent,correct,428
1296,circle,7.1716,59,congruent,correct,410
1296,circle,7.1716,60,congruent,correct,342
1296,circle,7.1716,61,congruent,correct,413
1296,circle,7.1716,62,congruent,correct,360
1296,circle,7.1716,63,incongruent,incorrect,362
1296,circle,7.1716,64,incongruent,incorrect,493
1296,circle,7.1716,65,congruent,incorrect,488
1296,circle,7.1716,66,congruent,correct,562
1296,circle,7.1716,67,congruent,correct,464
1296,circle,7.1716,68,congruent,correct,900
1296,circle,7.1716,69,congruent,correct,399
1296,circle,7.1716,70,congruent,correct,375
1296,circle,7.1716,71,incongruent,incorrect,460
1296,circle,7.1716,72,incongruent,correct,559
1296,circle,7.1716,73,congruent,correct,454
1296,circle,7.1716,74,congruent,correct,426
1296,circle,7.1716,75,incongruent,correct,561
1296,circle,7.1716,76,incongruent,correct,598
1296,circle,7.1716,77,congruent,correct,584
1296,circle,7.1716,78,congruent,correct,538
1296,circle,7.1716,79,congruent,correct,442
1296,circle,7.1716,80,congruent,correct,404
1296,circle,7.1716,81,congruent,correct,412
1296,circle,7.1716,82,congruent,correct,374
1296,circle,7.1716,83,incongruent,correct,536
1296,circle,7.1716,84,incongruent,incorrect,638
1296,circle,7.1716,85,incongruent,correct,558
1296,circle,7.1716,86,incongruent,correct,527
1296,circle,7.1716,87,incongruent,correct,446
1296,circle,7.1716,88,congruent,correct,543
1296,circle,7.1716,89,congruent,correct,685
1296,circle,7.1716,90,congruent,correct,393
1296,circle,7.1716,91,congruent,correct,435
1296,circle,7.1716,92,incongruent,correct,540
1296,circle,7.1716,93,incongruent,correct,573
1296,circle,7.1716,94,congruent,correct,501
1296,circle,7.1716,95,incongruent,incorrect,353
1296,circle,7.1716,96,congruent,correct,650
1296,circle,7.1716,97,incongruent,correct,529
1296,circle,7.1716,98,congruent,correct,400
1296,circle,7.1716,99,incongruent,correct,488
1296,circle,7.1716,100,incongruent,correct,543
1295,circle,7.023066666666667,1,congruent,correct,1741
1295,circle,7.023066666666667,2,incongruent,correct,650
1295,circle,7.023066666666667,3,congruent,correct,494
1295,circle,7.023066666666667,4,congruent,correct,736
1295,circle,7.023066666666667,5,congruent,correct,394
1295,circle,7.023066666666667,6,congruent,correct,322
1295,circle,7.023066666666667,7,incongruent,correct,455
1295,circle,7.023066666666667,8,incongruent,correct,467
1295,circle,7.023066666666667,9,congruent,correct,491
1295,circle,7.023066666666667,10,incongruent,incorrect,224
1295,circle,7.023066666666667,11,incongruent,correct,10903
1295,circle,7.023066666666667,12,congruent,correct,555
1295,circle,7.023066666666667,13,incongruent,correct,472
1295,circle,7.023066666666667,14,congruent,correct,421
1295,circle,7.023066666666667,15,congruent,correct,350
1295,circle,7.023066666666667,16,incongruent,correct,442
1295,circle,7.023066666666667,17,congruent,correct,291
1295,circle,7.023066666666667,18,incongruent,correct,428
1295,circle,7.023066666666667,19,congruent,incorrect,354
1295,circle,7.023066666666667,20,congruent,correct,370
1295,circle,7.023066666666667,1,incongruent,correct,537
1295,circle,7.023066666666667,2,congruent,correct,296
1295,circle,7.023066666666667,3,congruent,correct,350
1295,circle,7.023066666666667,4,incongruent,incorrect,411
1295,circle,7.023066666666667,5,congruent,correct,322
1295,circle,7.023066666666667,6,incongruent,incorrect,369
1295,circle,7.023066666666667,7,congruent,correct,537
1295,circle,7.023066666666667,8,incongruent,incorrect,349
1295,circle,7.023066666666667,9,congruent,correct,355
1295,circle,7.023066666666667,10,congruent,correct,326
1295,circle,7.023066666666667,11,incongruent,correct,468
1295,circle,7.023066666666667,12,congruent,correct,503
1295,circle,7.023066666666667,13,congruent,correct,308
1295,circle,7.023066666666667,14,congruent,correct,376
1295,circle,7.023066666666667,15,incongruent,incorrect,392
1295,circle,7.023066666666667,16,incongruent,correct,337
1295,circle,7.023066666666667,17,incongruent,incorrect,338
1295,circle,7.023066666666667,18,congruent,correct,342
1295,circle,7.023066666666667,19,congruent,correct,330
1295,circle,7.023066666666667,20,congruent,correct,513
1295,circle,7.023066666666667,21,incongruent,correct,490
1295,circle,7.023066666666667,22,incongruent,correct,432
1295,circle,7.023066666666667,23,congruent,correct,447
1295,circle,7.023066666666667,24,incongruent,correct,468
1295,circle,7.023066666666667,25,congruent,correct,353
1295,circle,7.023066666666667,26,congruent,correct,466
1295,circle,7.023066666666667,27,congruent,correct,307
1295,circle,7.023066666666667,28,congruent,correct,375
1295,circle,7.023066666666667,29,incongruent,correct,472
1295,circle,7.023066666666667,30,congruent,correct,434
1295,circle,7.023066666666667,31,congruent,correct,391
1295,circle,7.023066666666667,32,incongruent,incorrect,261
1295,circle,7.023066666666667,33,incongruent,incorrect,460
1295,circle,7.023066666666667,34,congruent,correct,334
1295,circle,7.023066666666667,35,congruent,correct,387
1295,circle,7.023066666666667,36,incongruent,correct,406
1295,circle,7.023066666666667,37,incongruent,correct,455
1295,circle,7.023066666666667,38,congruent,correct,403
1295,circle,7.023066666666667,39,congruent,incorrect,373
1295,circle,7.023066666666667,40,congruent,correct,578
1295,circle,7.023066666666667,41,congruent,correct,474
1295,circle,7.023066666666667,42,congruent,correct,376
1295,circle,7.023066666666667,43,incongruent,correct,442
1295,circle,7.023066666666667,44,congruent,correct,423
1295,circle,7.023066666666667,45,incongruent,correct,485
1295,circle,7.023066666666667,46,incongruent,correct,473
1295,circle,7.023066666666667,47,incongruent,correct,408
1295,circle,7.023066666666667,48,congruent,incorrect,396
1295,circle,7.023066666666667,49,incongruent,correct,455
1295,circle,7.023066666666667,50,incongruent,correct,458
1295,circle,7.023066666666667,51,congruent,correct,428
1295,circle,7.023066666666667,52,congruent,correct,462
1295,circle,7.023066666666667,53,incongruent,correct,457
1295,circle,7.023066666666667,54,congruent,correct,450
1295,circle,7.023066666666667,55,incongruent,correct,482
1295,circle,7.023066666666667,56,congruent,incorrect,390
1295,circle,7.023066666666667,57,congruent,correct,388
1295,circle,7.023066666666667,58,incongruent,correct,461
1295,circle,7.023066666666667,59,incongruent,correct,434
1295,circle,7.023066666666667,60,incongruent,correct,409
1295,circle,7.023066666666667,61,incongruent,incorrect,357
1295,circle,7.023066666666667,62,congruent,correct,336
1295,circle,7.023066666666667,63,congruent,correct,602
1295,circle,7.023066666666667,64,incongruent,correct,358
1295,circle,7.023066666666667,65,congruent,correct,421
1295,circle,7.023066666666667,66,congruent,incorrect,426
1295,circle,7.023066666666667,67,incongruent,correct,425
1295,circle,7.023066666666667,68,incongruent,correct,622
1295,circle,7.023066666666667,69,congruent,correct,544
1295,circle,7.023066666666667,70,incongruent,correct,570
1295,circle,7.023066666666667,71,congruent,correct,325
1295,circle,7.023066666666667,72,incongruent,correct,421
1295,circle,7.023066666666667,73,congruent,correct,414
1295,circle,7.023066666666667,74,congruent,correct,319
1295,circle,7.023066666666667,75,incongruent,correct,427
1295,circle,7.023066666666667,76,incongruent,correct,429
1295,circle,7.023066666666667,77,incongruent,correct,396
1295,circle,7.023066666666667,78,congruent,correct,538
1295,circle,7.023066666666667,79,congruent,correct,490
1295,circle,7.023066666666667,80,congruent,correct,403
1295,circle,7.023066666666667,81,incongruent,incorrect,398
1295,circle,7.023066666666667,82,incongruent,correct,490
1295,circle,7.023066666666667,83,congruent,correct,514
1295,circle,7.023066666666667,84,incongruent,incorrect,326
1295,circle,7.023066666666667,85,incongruent,correct,426
1295,circle,7.023066666666667,86,congruent,correct,386
1295,circle,7.023066666666667,87,congruent,correct,402
1295,circle,7.023066666666667,88,incongruent,correct,474
1295,circle,7.023066666666667,89,incongruent,correct,421
1295,circle,7.023066666666667,90,incongruent,incorrect,325
1295,circle,7.023066666666667,91,congruent,correct,385
1295,circle,7.023066666666667,92,congruent,correct,448
1295,circle,7.023066666666667,93,incongruent,incorrect,378
1295,circle,7.023066666666667,94,incongruent,correct,606
1295,circle,7.023066666666667,95,incongruent,correct,523
1295,circle,7.023066666666667,96,incongruent,correct,586
1295,circle,7.023066666666667,97,incongruent,correct,426
1295,circle,7.023066666666667,98,incongruent,correct,509
1295,circle,7.023066666666667,99,incongruent,correct,427
1295,circle,7.023066666666667,100,congruent,correct,458
1294,square,3135.7499166666666,1,congruent,correct,521
1294,square,3135.7499166666666,2,congruent,correct,526
1294,square,3135.7499166666666,3,congruent,correct,395
1294,square,3135.7499166666666,4,incongruent,correct,507
1294,square,3135.7499166666666,5,congruent,correct,591
1294,square,3135.7499166666666,6,incongruent,correct,575
1294,square,3135.7499166666666,7,incongruent,correct,476
1294,square,3135.7499166666666,8,congruent,correct,504
1294,square,3135.7499166666666,9,incongruent,correct,497
1294,square,3135.7499166666666,10,incongruent,correct,386
1294,square,3135.7499166666666,11,incongruent,correct,426
1294,square,3135.7499166666666,12,incongruent,correct,539
1294,square,3135.7499166666666,13,congruent,correct,417
1294,square,3135.7499166666666,14,incongruent,correct,465
1294,square,3135.7499166666666,15,incongruent,correct,486
1294,square,3135.7499166666666,16,incongruent,correct,533
1294,square,3135.7499166666666,17,congruent,correct,503
1294,square,3135.7499166666666,18,congruent,correct,470
1294,square,3135.7499166666666,19,congruent,correct,406
1294,square,3135.7499166666666,20,incongruent,correct,450
1294,square,3135.7499166666666,1,incongruent,correct,691
1294,square,3135.7499166666666,2,incongruent,correct,531
1294,square,3135.7499166666666,3,incongruent,correct,496
1294,square,3135.7499166666666,4,incongruent,correct,528
1294,square,3135.7499166666666,5,congruent,correct,436
1294,square,3135.7499166666666,6,congruent,correct,455
1294,square,3135.7499166666666,7,congruent,correct,421
1294,square,3135.7499166666666,8,incongruent,correct,436
1294,square,3135.7499166666666,9,congruent,correct,472
1294,square,3135.7499166666666,10,congruent,correct,458
1294,square,3135.7499166666666,11,incongruent,correct,440
1294,square,3135.7499166666666,12,congruent,correct,488
1294,square,3135.7499166666666,13,incongruent,correct,546
1294,square,3135.7499166666666,14,congruent,correct,422
1294,square,3135.7499166666666,15,incongruent,correct,505
1294,square,3135.7499166666666,16,congruent,correct,546
1294,square,3135.7499166666666,17,congruent,correct,463
1294,square,3135.7499166666666,18,congruent,correct,448
1294,square,3135.7499166666666,19,incongruent,correct,485
1294,square,3135.7499166666666,20,incongruent,correct,519
1294,square,3135.7499166666666,21,incongruent,correct,524
1294,square,3135.7499166666666,22,congruent,correct,606
1294,square,3135.7499166666666,23,incongruent,correct,417
1294,square,3135.7499166666666,24,incongruent,correct,459
1294,square,3135.7499166666666,25,congruent,correct,446
1294,square,3135.7499166666666,26,congruent,correct,431
1294,square,3135.7499166666666,27,incongruent,correct,492
1294,square,3135.7499166666666,28,congruent,correct,375
1294,square,3135.7499166666666,29,incongruent,correct,419
1294,square,3135.7499166666666,30,incongruent,correct,451
1294,square,3135.7499166666666,31,congruent,correct,469
1294,square,3135.7499166666666,32,incongruent,correct,564
1294,square,3135.7499166666666,33,incongruent,correct,456
1294,square,3135.7499166666666,34,incongruent,correct,425
1294,square,3135.7499166666666,35,incongruent,correct,457
1294,square,3135.7499166666666,36,incongruent,correct,423
1294,square,3135.7499166666666,37,incongruent,correct,363
1294,square,3135.7499166666666,38,incongruent,correct,443
1294,square,3135.7499166666666,39,congruent,correct,403
1294,square,3135.7499166666666,40,congruent,correct,433
1294,square,3135.7499166666666,41,congruent,correct,455
1294,square,3135.7499166666666,42,incongruent,incorrect,407
1294,square,3135.7499166666666,43,incongruent,correct,652
1294,square,3135.7499166666666,44,congruent,correct,408
1294,square,3135.7499166666666,45,incongruent,correct,565
1294,square,3135.7499166666666,46,congruent,correct,671
1294,square,3135.7499166666666,47,incongruent,correct,461
1294,square,3135.7499166666666,48,incongruent,correct,483
1294,square,3135.7499166666666,49,incongruent,correct,563
1294,square,3135.7499166666666,50,congruent,correct,467
1294,square,3135.7499166666666,51,congruent,correct,450
1294,square,3135.7499166666666,52,congruent,correct,434
1294,square,3135.7499166666666,53,incongruent,correct,599
1294,square,3135.7499166666666,54,congruent,correct,407
1294,square,3135.7499166666666,55,congruent,correct,479
1294,square,3135.7499166666666,56,congruent,correct,502
1294,square,3135.7499166666666,57,congruent,correct,490
1294,square,3135.7499166666666,58,congruent,correct,447
1294,square,3135.7499166666666,59,congruent,correct,455
1294,square,3135.7499166666666,60,incongruent,correct,496
1294,square,3135.7499166666666,61,incongruent,correct,405
1294,square,3135.7499166666666,62,congruent,correct,499
1294,square,3135.7499166666666,63,congruent,correct,444
1294,square,3135.7499166666666,64,congruent,correct,447
1294,square,3135.7499166666666,65,congruent,correct,439
1294,square,3135.7499166666666,66,congruent,correct,462
1294,square,3135.7499166666666,67,incongruent,correct,624
1294,square,3135.7499166666666,68,incongruent,correct,549
1294,square,3135.7499166666666,69,incongruent,correct,473
1294,square,3135.7499166666666,70,incongruent,correct,536
1294,square,3135.7499166666666,71,congruent,correct,409
1294,square,3135.7499166666666,72,congruent,correct,604
1294,square,3135.7499166666666,73,incongruent,correct,565
1294,square,3135.7499166666666,74,incongruent,correct,520
1294,square,3135.7499166666666,75,incongruent,correct,573
1294,square,3135.7499166666666,76,congruent,correct,454
1294,square,3135.7499166666666,77,congruent,correct,434
1294,square,3135.7499166666666,78,incongruent,correct,643
1294,square,3135.7499166666666,79,congruent,correct,637
1294,square,3135.7499166666666,80,congruent,correct,539
1294,square,3135.7499166666666,81,incongruent,correct,553
1294,square,3135.7499166666666,82,congruent,correct,432
1294,square,3135.7499166666666,83,incongruent,correct,636
1294,square,3135.7499166666666,84,incongruent,correct,466
1294,square,3135.7499166666666,85,congruent,correct,436
1294,square,3135.7499166666666,86,congruent,correct,531
1294,square,3135.7499166666666,87,incongruent,correct,551
1294,square,3135.7499166666666,88,congruent,correct,492
1294,square,3135.7499166666666,89,incongruent,correct,534
1294,square,3135.7499166666666,90,congruent,correct,518
1294,square,3135.7499166666666,91,incongruent,correct,658
1294,square,3135.7499166666666,92,congruent,correct,627
1294,square,3135.7499166666666,93,incongruent,correct,549
1294,square,3135.7499166666666,94,congruent,correct,546
1294,square,3135.7499166666666,95,incongruent,correct,426
1294,square,3135.7499166666666,96,congruent,correct,513
1294,square,3135.7499166666666,97,incongruent,correct,699
1294,square,3135.7499166666666,98,incongruent,correct,580
1294,square,3135.7499166666666,99,incongruent,correct,492
1294,square,3135.7499166666666,100,congruent,correct,565
1293,square,6.9515,1,incongruent,correct,894
1293,square,6.9515,2,incongruent,correct,432
1293,square,6.9515,3,congruent,incorrect,378
1293,square,6.9515,4,incongruent,correct,532
1293,square,6.9515,5,congruent,correct,446
1293,square,6.9515,6,congruent,correct,406
1293,square,6.9515,7,congruent,correct,441
1293,square,6.9515,8,congruent,correct,489
1293,square,6.9515,9,congruent,correct,391
1293,square,6.9515,10,incongruent,correct,491
1293,square,6.9515,11,incongruent,correct,622
1293,square,6.9515,12,congruent,correct,412
1293,square,6.9515,13,congruent,correct,401
1293,square,6.9515,14,incongruent,correct,437
1293,square,6.9515,15,congruent,correct,446
1293,square,6.9515,16,incongruent,correct,387
1293,square,6.9515,17,incongruent,correct,440
1293,square,6.9515,18,congruent,correct,403
1293,square,6.9515,19,congruent,correct,427
1293,square,6.9515,20,incongruent,correct,430
1293,square,6.9515,1,incongruent,incorrect,11980
1293,square,6.9515,2,congruent,correct,478
1293,square,6.9515,3,incongruent,correct,404
1293,square,6.9515,4,congruent,incorrect,508
1293,square,6.9515,5,incongruent,incorrect,525
1293,square,6.9515,6,incongruent,incorrect,672
1293,square,6.9515,7,incongruent,correct,773
1293,square,6.9515,8,congruent,correct,465
1293,square,6.9515,9,incongruent,correct,550
1293,square,6.9515,10,congruent,correct,585
1293,square,6.9515,11,incongruent,correct,434
1293,square,6.9515,12,congruent,correct,622
1293,square,6.9515,13,congruent,correct,386
1293,square,6.9515,14,congruent,correct,324
1293,square,6.9515,15,congruent,correct,354
1293,square,6.9515,16,congruent,correct,456
1293,square,6.9515,17,congruent,correct,407
1293,square,6.9515,18,congruent,correct,430
1293,square,6.9515,19,congruent,correct,378
1293,square,6.9515,20,congruent,correct,388
1293,square,6.9515,21,congruent,correct,382
1293,square,6.9515,22,congruent,correct,393
1293,square,6.9515,23,incongruent,incorrect,397
1293,square,6.9515,24,incongruent,correct,473
1293,square,6.9515,25,incongruent,correct,529
1293,square,6.9515,26,incongruent,correct,467
1293,square,6.9515,27,congruent,correct,518
1293,square,6.9515,28,incongruent,correct,709
1293,square,6.9515,29,congruent,correct,384
1293,square,6.9515,30,congruent,correct,512
1293,square,6.9515,31,incongruent,correct,455
1293,square,6.9515,32,congruent,correct,406
1293,square,6.9515,33,incongruent,correct,406
1293,square,6.9515,34,congruent,correct,450
1293,square,6.9515,35,congruent,correct,373
1293,square,6.9515,36,congruent,correct,380
1293,square,6.9515,37,incongruent,correct,405
1293,square,6.9515,38,congruent,correct,341
1293,square,6.9515,39,congruent,correct,359
1293,square,6.9515,40,incongruent,incorrect,268
1293,square,6.9515,41,incongruent,correct,490
1293,square,6.9515,42,incongruent,correct,437
1293,square,6.9515,43,incongruent,correct,384
1293,square,6.9515,44,congruent,correct,351
1293,square,6.9515,45,incongruent,incorrect,362
1293,square,6.9515,46,incongruent,incorrect,276
1293,square,6.9515,47,congruent,incorrect,78
1293,square,6.9515,48,incongruent,correct,527
1293,square,6.9515,49,incongruent,correct,500
1293,square,6.9515,50,congruent,correct,426
1293,square,6.9515,51,incongruent,correct,426
1293,square,6.9515,52,congruent,correct,351
1293,square,6.9515,53,incongruent,incorrect,368
1293,square,6.9515,54,congruent,correct,283
1293,square,6.9515,55,incongruent,incorrect,411
1293,square,6.9515,56,incongruent,incorrect,404
1293,square,6.9515,57,incongruent,incorrect,478
1293,square,6.9515,58,congruent,correct,475
1293,square,6.9515,59,congruent,correct,414
1293,square,6.9515,60,congruent,correct,383
1293,square,6.9515,61,incongruent,correct,515
1293,square,6.9515,62,congruent,correct,568
1293,square,6.9515,63,congruent,correct,400
1293,square,6.9515,64,congruent,correct,388
1293,square,6.9515,65,incongruent,correct,414
1293,square,6.9515,66,congruent,correct,390
1293,square,6.9515,67,congruent,correct,403
1293,square,6.9515,68,congruent,correct,407
1293,square,6.9515,69,incongruent,incorrect,425
1293,square,6.9515,70,congruent,correct,452
1293,square,6.9515,71,congruent,correct,499
1293,square,6.9515,72,congruent,correct,414
1293,square,6.9515,73,congruent,correct,694
1293,square,6.9515,74,incongruent,incorrect,519
1293,square,6.9515,75,incongruent,correct,739
1293,square,6.9515,76,incongruent,correct,596
1293,square,6.9515,77,congruent,correct,504
1293,square,6.9515,78,congruent,correct,594
1293,square,6.9515,79,incongruent,correct,442
1293,square,6.9515,80,incongruent,correct,468
1293,square,6.9515,81,incongruent,correct,388
1293,square,6.9515,82,incongruent,correct,242
1293,square,6.9515,83,incongruent,correct,323
1293,square,6.9515,84,incongruent,correct,403
1293,square,6.9515,85,incongruent,incorrect,341
1293,square,6.9515,86,congruent,correct,430
1293,square,6.9515,87,incongruent,correct,591
1293,square,6.9515,88,incongruent,correct,412
1293,square,6.9515,89,incongruent,correct,542
1293,square,6.9515,90,congruent,correct,464
1293,square,6.9515,91,incongruent,correct,434
1293,square,6.9515,92,congruent,incorrect,394
1293,square,6.9515,93,incongruent,correct,487
1293,square,6.9515,94,congruent,correct,463
1293,square,6.9515,95,congruent,correct,422
1293,square,6.9515,96,congruent,correct,389
1293,square,6.9515,97,congruent,correct,496
1293,square,6.9515,98,incongruent,correct,390
1293,square,6.9515,99,incongruent,correct,464
1293,square,6.9515,100,incongruent,correct,495
1292,square,7.898266666666666,1,congruent,correct,1512
1292,square,7.898266666666666,2,congruent,correct,656
1292,square,7.898266666666666,3,incongruent,correct,702
1292,square,7.898266666666666,4,congruent,correct,573
1292,square,7.898266666666666,5,incongruent,correct,592
1292,square,7.898266666666666,6,incongruent,correct,618
1292,square,7.898266666666666,7,congruent,correct,564
1292,square,7.898266666666666,8,congruent,correct,471
1292,square,7.898266666666666,9,congruent,correct,449
1292,square,7.898266666666666,10,congruent,correct,568
1292,square,7.898266666666666,11,incongruent,correct,528
1292,square,7.898266666666666,12,incongruent,correct,533
1292,square,7.898266666666666,13,incongruent,correct,535
1292,square,7.898266666666666,14,incongruent,correct,496
1292,square,7.898266666666666,15,incongruent,correct,491
1292,square,7.898266666666666,16,incongruent,correct,703
1292,square,7.898266666666666,17,incongruent,correct,472
1292,square,7.898266666666666,18,incongruent,correct,435
1292,square,7.898266666666666,19,incongruent,correct,426
1292,square,7.898266666666666,20,incongruent,correct,417
1292,square,7.898266666666666,1,congruent,correct,789
1292,square,7.898266666666666,2,congruent,correct,406
1292,square,7.898266666666666,3,incongruent,correct,476
1292,square,7.898266666666666,4,incongruent,correct,360
1292,square,7.898266666666666,5,congruent,correct,375
1292,square,7.898266666666666,6,congruent,correct,445
1292,square,7.898266666666666,7,congruent,correct,332
1292,square,7.898266666666666,8,incongruent,correct,468
1292,square,7.898266666666666,9,incongruent,correct,476
1292,square,7.898266666666666,10,incongruent,correct,414
1292,square,7.898266666666666,11,incongruent,correct,462
1292,square,7.898266666666666,12,congruent,correct,399
1292,square,7.898266666666666,13,incongruent,correct,724
1292,square,7.898266666666666,14,incongruent,correct,416
1292,square,7.898266666666666,15,incongruent,correct,635
1292,square,7.898266666666666,16,congruent,correct,406
1292,square,7.898266666666666,17,incongruent,correct,444
1292,square,7.898266666666666,18,incongruent,correct,500
1292,square,7.898266666666666,19,incongruent,correct,476
1292,square,7.898266666666666,20,incongruent,correct,1214
1292,square,7.898266666666666,21,incongruent,correct,453
1292,square,7.898266666666666,22,incongruent,correct,610
1292,square,7.898266666666666,23,incongruent,correct,539
1292,square,7.898266666666666,24,congruent,correct,560
1292,square,7.898266666666666,25,incongruent,correct,482
1292,square,7.898266666666666,26,incongruent,correct,460
1292,square,7.898266666666666,27,incongruent,correct,562
1292,square,7.898266666666666,28,congruent,correct,595
1292,square,7.898266666666666,29,incongruent,correct,467
1292,square,7.898266666666666,30,incongruent,correct,511
1292,square,7.898266666666666,31,congruent,correct,424
1292,square,7.898266666666666,32,congruent,correct,376
1292,square,7.898266666666666,33,congruent,correct,399
1292,square,7.898266666666666,34,incongruent,correct,501
1292,square,7.898266666666666,35,incongruent,correct,386
1292,square,7.898266666666666,36,congruent,correct,470
1292,square,7.898266666666666,37,incongruent,correct,450
1292,square,7.898266666666666,38,congruent,correct,337
1292,square,7.898266666666666,39,incongruent,correct,391
1292,square,7.898266666666666,40,incongruent,correct,410
1292,square,7.898266666666666,41,congruent,correct,413
1292,square,7.898266666666666,42,congruent,correct,355
1292,square,7.898266666666666,43,congruent,correct,363
1292,square,7.898266666666666,44,congruent,correct,362
1292,square,7.898266666666666,45,incongruent,correct,443
1292,square,7.898266666666666,46,congruent,correct,322
1292,square,7.898266666666666,47,incongruent,correct,483
1292,square,7.898266666666666,48,incongruent,correct,397
1292,square,7.898266666666666,49,incongruent,correct,554
1292,square,7.898266666666666,50,incongruent,correct,441
1292,square,7.898266666666666,51,congruent,correct,487
1292,square,7.898266666666666,52,incongruent,correct,516
1292,square,7.898266666666666,53,incongruent,correct,443
1292,square,7.898266666666666,54,congruent,correct,399
1292,square,7.898266666666666,55,incongruent,correct,451
1292,square,7.898266666666666,56,congruent,correct,418
1292,square,7.898266666666666,57,incongruent,correct,538
1292,square,7.898266666666666,58,congruent,correct,410
1292,square,7.898266666666666,59,incongruent,incorrect,324
1292,square,7.898266666666666,60,incongruent,correct,506
1292,square,7.898266666666666,61,congruent,correct,406
1292,square,7.898266666666666,62,incongruent,correct,452
1292,square,7.898266666666666,63,incongruent,correct,435
1292,square,7.898266666666666,64,incongruent,correct,540
1292,square,7.898266666666666,65,congruent,correct,393
1292,square,7.898266666666666,66,incongruent,correct,614
1292,square,7.898266666666666,67,congruent,correct,433
1292,square,7.898266666666666,68,congruent,correct,440
1292,square,7.898266666666666,69,congruent,correct,361
1292,square,7.898266666666666,70,incongruent,correct,446
1292,square,7.898266666666666,71,incongruent,correct,462
1292,square,7.898266666666666,72,congruent,correct,394
1292,square,7.898266666666666,73,congruent,correct,423
1292,square,7.898266666666666,74,incongruent,correct,364
1292,square,7.898266666666666,75,congruent,correct,360
1292,square,7.898266666666666,76,congruent,correct,389
1292,square,7.898266666666666,77,congruent,correct,340
1292,square,7.898266666666666,78,incongruent,correct,506
1292,square,7.898266666666666,79,incongruent,correct,465
1292,square,7.898266666666666,80,incongruent,correct,404
1292,square,7.898266666666666,81,congruent,correct,443
1292,square,7.898266666666666,82,incongruent,correct,414
1292,square,7.898266666666666,83,congruent,correct,411
1292,square,7.898266666666666,84,incongruent,correct,457
1292,square,7.898266666666666,85,incongruent,correct,476
1292,square,7.898266666666666,86,congruent,correct,412
1292,square,7.898266666666666,87,incongruent,correct,410
1292,square,7.898266666666666,88,incongruent,correct,399
1292,square,7.898266666666666,89,congruent,correct,332
1292,square,7.898266666666666,90,congruent,correct,373
1292,square,7.898266666666666,91,congruent,correct,371
1292,square,7.898266666666666,92,congruent,correct,399
1292,square,7.898266666666666,93,incongruent,correct,525
1292,square,7.898266666666666,94,incongruent,correct,459
1292,square,7.898266666666666,95,congruent,incorrect,400
1292,square,7.898266666666666,96,congruent,correct,460
1292,square,7.898266666666666,97,incongruent,correct,432
1292,square,7.898266666666666,98,congruent,correct,429
1292,square,7.898266666666666,99,congruent,correct,368
1292,square,7.898266666666666,100,incongruent,correct,484
1291,square,16.750233333333334,1,congruent,correct,11285
1291,square,16.750233333333334,2,congruent,correct,264
1291,square,16.750233333333334,3,incongruent,incorrect,307
1291,square,16.750233333333334,4,congruent,correct,325
1291,square,16.750233333333334,5,incongruent,incorrect,301
1291,square,16.750233333333334,6,incongruent,incorrect,423
1291,square,16.750233333333334,7,incongruent,correct,499
1291,square,16.750233333333334,8,congruent,correct,528
1291,square,16.750233333333334,9,incongruent,correct,566
1291,square,16.750233333333334,10,congruent,incorrect,507
1291,square,16.750233333333334,11,incongruent,correct,748
1291,square,16.750233333333334,12,incongruent,correct,447
1291,square,16.750233333333334,13,congruent,correct,511
1291,square,16.750233333333334,14,congruent,correct,448
1291,square,16.750233333333334,15,congruent,correct,351
1291,square,16.750233333333334,16,incongruent,correct,492
1291,square,16.750233333333334,17,congruent,correct,438
1291,square,16.750233333333334,18,congruent,correct,541
1291,square,16.750233333333334,19,incongruent,correct,546
1291,square,16.750233333333334,20,incongruent,correct,410
1291,square,16.750233333333334,1,congruent,correct,364
1291,square,16.750233333333334,2,incongruent,correct,450
1291,square,16.750233333333334,3,incongruent,correct,455
1291,square,16.750233333333334,4,congruent,correct,478
1291,square,16.750233333333334,5,incongruent,correct,622
1291,square,16.750233333333334,6,incongruent,correct,403
1291,square,16.750233333333334,7,congruent,correct,447
1291,square,16.750233333333334,8,congruent,correct,347
1291,square,16.750233333333334,9,congruent,correct,335
1291,square,16.750233333333334,10,congruent,correct,335
1291,square,16.750233333333334,11,congruent,correct,332
1291,square,16.750233333333334,12,congruent,correct,452
1291,square,16.750233333333334,13,congruent,correct,364
1291,square,16.750233333333334,14,congruent,correct,485
1291,square,16.750233333333334,15,incongruent,correct,490
1291,square,16.750233333333334,16,congruent,correct,495
1291,square,16.750233333333334,17,incongruent,incorrect,372
1291,square,16.750233333333334,18,incongruent,correct,541
1291,square,16.750233333333334,19,congruent,correct,398
1291,square,16.750233333333334,20,congruent,correct,412
1291,square,16.750233333333334,21,incongruent,correct,465
1291,square,16.750233333333334,22,congruent,correct,611
1291,square,16.750233333333334,23,incongruent,correct,448
1291,square,16.750233333333334,24,incongruent,correct,411
1291,square,16.750233333333334,25,incongruent,correct,462
1291,square,16.750233333333334,26,incongruent,correct,625
1291,square,16.750233333333334,27,congruent,correct,396
1291,square,16.750233333333334,28,congruent,correct,380
1291,square,16.750233333333334,29,congruent,correct,359
1291,square,16.750233333333334,30,congruent,correct,377
1291,square,16.750233333333334,31,congruent,correct,282
1291,square,16.750233333333334,32,incongruent,incorrect,397
1291,square,16.750233333333334,33,incongruent,correct,538
1291,square,16.750233333333334,34,congruent,correct,424
1291,square,16.750233333333334,35,incongruent,correct,433
1291,square,16.750233333333334,36,congruent,correct,448
1291,square,16.750233333333334,37,incongruent,correct,430
1291,square,16.750233333333334,38,congruent,correct,426
1291,square,16.750233333333334,39,incongruent,correct,394
1291,square,16.750233333333334,40,incongruent,correct,473
1291,square,16.750233333333334,41,incongruent,correct,438
1291,square,16.750233333333334,42,incongruent,correct,365
1291,square,16.750233333333334,43,incongruent,correct,490
1291,square,16.750233333333334,44,incongruent,correct,345
1291,square,16.750233333333334,45,congruent,correct,422
1291,square,16.750233333333334,46,incongruent,correct,547
1291,square,16.750233333333334,47,incongruent,correct,499
1291,square,16.750233333333334,48,congruent,correct,522
1291,square,16.750233333333334,49,incongruent,correct,556
1291,square,16.750233333333334,50,incongruent,correct,461
1291,square,16.750233333333334,51,incongruent,correct,513
1291,square,16.750233333333334,52,incongruent,correct,513
1291,square,16.750233333333334,53,incongruent,correct,532
1291,square,16.750233333333334,54,congruent,correct,476
1291,square,16.750233333333334,55,congruent,correct,365
1291,square,16.750233333333334,56,incongruent,correct,506
1291,square,16.750233333333334,57,incongruent,correct,457
1291,square,16.750233333333334,58,congruent,correct,388
1291,square,16.750233333333334,59,congruent,correct,410
1291,square,16.750233333333334,60,incongruent,correct,393
1291,square,16.750233333333334,61,congruent,correct,377
1291,square,16.750233333333334,62,incongruent,incorrect,305
1291,square,16.750233333333334,63,incongruent,correct,496
1291,square,16.750233333333334,64,congruent,correct,396
1291,square,16.750233333333334,65,congruent,correct,335
1291,square,16.750233333333334,66,incongruent,correct,441
1291,square,16.750233333333334,67,congruent,correct,363
1291,square,16.750233333333334,68,incongruent,correct,393
1291,square,16.750233333333334,69,incongruent,correct,579
1291,square,16.750233333333334,70,congruent,correct,482
1291,square,16.750233333333334,71,congruent,correct,361
1291,square,16.750233333333334,72,congruent,correct,399
1291,square,16.750233333333334,73,incongruent,incorrect,325
1291,square,16.750233333333334,74,congruent,correct,504
1291,square,16.750233333333334,75,incongruent,correct,399
1291,square,16.750233333333334,76,congruent,correct,371
1291,square,16.750233333333334,77,congruent,correct,393
1291,square,16.750233333333334,78,congruent,correct,368
1291,square,16.750233333333334,79,incongruent,correct,502
1291,square,16.750233333333334,80,congruent,correct,447
1291,square,16.750233333333334,81,congruent,correct,433
1291,square,16.750233333333334,82,incongruent,incorrect,394
1291,square,16.750233333333334,83,incongruent,correct,478
1291,square,16.750233333333334,84,incongruent,correct,390
1291,square,16.750233333333334,85,incongruent,correct,499
1291,square,16.750233333333334,86,incongruent,correct,356
1291,square,16.750233333333334,87,congruent,correct,405
1291,square,16.750233333333334,88,congruent,correct,373
1291,square,16.750233333333334,89,congruent,correct,387
1291,square,16.750233333333334,90,incongruent,incorrect,349
1291,square,16.750233333333334,91,incongruent,correct,471
1291,square,16.750233333333334,92,congruent,correct,446
1291,square,16.750233333333334,93,incongruent,correct,443
1291,square,16.750233333333334,94,incongruent,correct,436
1291,square,16.750233333333334,95,incongruent,correct,507
1291,square,16.750233333333334,96,congruent,correct,417
1291,square,16.750233333333334,97,incongruent,correct,470
1291,square,16.750233333333334,98,incongruent,correct,391
1291,square,16.750233333333334,99,incongruent,correct,446
1291,square,16.750233333333334,100,incongruent,correct,405
1290,circle,11.09875,1,congruent,correct,1133
1290,circle,11.09875,2,congruent,correct,492
1290,circle,11.09875,3,incongruent,correct,732
1290,circle,11.09875,4,incongruent,correct,742
1290,circle,11.09875,5,congruent,correct,507
1290,circle,11.09875,6,congruent,correct,441
1290,circle,11.09875,7,incongruent,correct,601
1290,circle,11.09875,8,incongruent,correct,487
1290,circle,11.09875,9,congruent,correct,802
1290,circle,11.09875,10,incongruent,correct,587
1290,circle,11.09875,11,incongruent,correct,504
1290,circle,11.09875,12,incongruent,correct,462
1290,circle,11.09875,13,congruent,correct,588
1290,circle,11.09875,14,congruent,correct,467
1290,circle,11.09875,15,incongruent,correct,548
1290,circle,11.09875,16,congruent,correct,621
1290,circle,11.09875,17,incongruent,correct,458
1290,circle,11.09875,18,congruent,correct,503
1290,circle,11.09875,19,congruent,correct,469
1290,circle,11.09875,20,incongruent,correct,500
1290,circle,11.09875,1,congruent,correct,523
1290,circle,11.09875,2,incongruent,correct,441
1290,circle,11.09875,3,incongruent,correct,474
1290,circle,11.09875,4,incongruent,correct,458
1290,circle,11.09875,5,incongruent,correct,403
1290,circle,11.09875,6,incongruent,correct,415
1290,circle,11.09875,7,incongruent,correct,380
1290,circle,11.09875,8,incongruent,correct,546
1290,circle,11.09875,9,congruent,correct,485
1290,circle,11.09875,10,incongruent,correct,421
1290,circle,11.09875,11,incongruent,correct,479
1290,circle,11.09875,12,incongruent,correct,477
1290,circle,11.09875,13,congruent,correct,458
1290,circle,11.09875,14,congruent,correct,441
1290,circle,11.09875,15,incongruent,correct,602
1290,circle,11.09875,16,congruent,correct,377
1290,circle,11.09875,17,congruent,correct,442
1290,circle,11.09875,18,congruent,correct,449
1290,circle,11.09875,19,incongruent,correct,506
1290,circle,11.09875,20,congruent,correct,448
1290,circle,11.09875,21,incongruent,correct,511
1290,circle,11.09875,22,incongruent,correct,456
1290,circle,11.09875,23,incongruent,correct,446
1290,circle,11.09875,24,incongruent,correct,381
1290,circle,11.09875,25,congruent,correct,491
1290,circle,11.09875,26,incongruent,correct,705
1290,circle,11.09875,27,congruent,correct,409
1290,circle,11.09875,28,congruent,correct,420
1290,circle,11.09875,29,congruent,correct,479
1290,circle,11.09875,30,incongruent,correct,458
1290,circle,11.09875,31,incongruent,correct,537
1290,circle,11.09875,32,incongruent,correct,483
1290,circle,11.09875,33,congruent,correct,469
1290,circle,11.09875,34,incongruent,correct,464
1290,circle,11.09875,35,incongruent,correct,464
1290,circle,11.09875,36,incongruent,correct,522
1290,circle,11.09875,37,incongruent,correct,453
1290,circle,11.09875,38,incongruent,correct,435
1290,circle,11.09875,39,congruent,correct,411
1290,circle,11.09875,40,incongruent,correct,429
1290,circle,11.09875,41,incongruent,correct,502
1290,circle,11.09875,42,incongruent,correct,424
1290,circle,11.09875,43,incongruent,correct,449
1290,circle,11.09875,44,incongruent,correct,471
1290,circle,11.09875,45,incongruent,correct,430
1290,circle,11.09875,46,incongruent,correct,437
1290,circle,11.09875,47,congruent,correct,427
1290,circle,11.09875,48,incongruent,correct,453
1290,circle,11.09875,49,incongruent,correct,398
1290,circle,11.09875,50,congruent,correct,448
1290,circle,11.09875,51,incongruent,correct,485
1290,circle,11.09875,52,congruent,correct,433
1290,circle,11.09875,53,congruent,correct,401
1290,circle,11.09875,54,incongruent,correct,450
1290,circle,11.09875,55,incongruent,correct,526
1290,circle,11.09875,56,congruent,correct,467
1290,circle,11.09875,57,incongruent,correct,476
1290,circle,11.09875,58,congruent,correct,576
1290,circle,11.09875,59,incongruent,correct,466
1290,circle,11.09875,60,incongruent,correct,497
1290,circle,11.09875,61,congruent,correct,450
1290,circle,11.09875,62,congruent,correct,528
1290,circle,11.09875,63,congruent,correct,453
1290,circle,11.09875,64,incongruent,correct,448
1290,circle,11.09875,65,congruent,correct,510
1290,circle,11.09875,66,congruent,correct,430
1290,circle,11.09875,67,congruent,correct,451
1290,circle,11.09875,68,congruent,correct,406
1290,circle,11.09875,69,incongruent,correct,474
1290,circle,11.09875,70,incongruent,correct,428
1290,circle,11.09875,71,incongruent,correct,451
1290,circle,11.09875,72,congruent,correct,484
1290,circle,11.09875,73,congruent,correct,477
1290,circle,11.09875,74,incongruent,correct,512
1290,circle,11.09875,75,incongruent,correct,553
1290,circle,11.09875,76,congruent,correct,512
1290,circle,11.09875,77,incongruent,correct,499
1290,circle,11.09875,78,incongruent,correct,487
1290,circle,11.09875,79,incongruent,correct,482
1290,circle,11.09875,80,incongruent,correct,487
1290,circle,11.09875,81,incongruent,correct,459
1290,circle,11.09875,82,congruent,correct,434
1290,circle,11.09875,83,incongruent,correct,527
1290,circle,11.09875,84,congruent,correct,473
1290,circle,11.09875,85,congruent,correct,412
1290,circle,11.09875,86,congruent,correct,568
1290,circle,11.09875,87,incongruent,correct,479
1290,circle,11.09875,88,congruent,correct,567
1290,circle,11.09875,89,congruent,correct,376
1290,circle,11.09875,90,incongruent,correct,572
1290,circle,11.09875,91,congruent,correct,389
1290,circle,11.09875,92,incongruent,correct,500
1290,circle,11.09875,93,incongruent,correct,415
1290,circle,11.09875,94,congruent,correct,390
1290,circle,11.09875,95,congruent,correct,443
1290,circle,11.09875,96,congruent,correct,421
1290,circle,11.09875,97,congruent,correct,376
1290,circle,11.09875,98,congruent,correct,454
1290,circle,11.09875,99,congruent,correct,434
1290,circle,11.09875,100,incongruent,correct,460
1289,circle,6.421,1,congruent,correct,1477
1289,circle,6.421,2,congruent,correct,643
1289,circle,6.421,3,incongruent,correct,622
1289,circle,6.421,4,congruent,correct,509
1289,circle,6.421,5,congruent,correct,445
1289,circle,6.421,6,incongruent,correct,578
1289,circle,6.421,7,congruent,correct,449
1289,circle,6.421,8,congruent,correct,471
1289,circle,6.421,9,incongruent,correct,483
1289,circle,6.421,10,incongruent,correct,525
1289,circle,6.421,11,congruent,correct,468
1289,circle,6.421,12,congruent,correct,449
1289,circle,6.421,13,incongruent,correct,384
1289,circle,6.421,14,incongruent,correct,444
1289,circle,6.421,15,congruent,correct,439
1289,circle,6.421,16,incongruent,correct,450
1289,circle,6.421,17,incongruent,correct,379
1289,circle,6.421,18,incongruent,correct,396
1289,circle,6.421,19,congruent,correct,509
1289,circle,6.421,20,congruent,correct,428
1289,circle,6.421,1,incongruent,correct,509
1289,circle,6.421,2,incongruent,correct,417
1289,circle,6.421,3,incongruent,correct,339
1289,circle,6.421,4,incongruent,correct,468
1289,circle,6.421,5,incongruent,correct,419
1289,circle,6.421,6,congruent,correct,448
1289,circle,6.421,7,congruent,correct,390
1289,circle,6.421,8,congruent,correct,376
1289,circle,6.421,9,incongruent,correct,502
1289,circle,6.421,10,congruent,correct,455
1289,circle,6.421,11,incongruent,correct,562
1289,circle,6.421,12,incongruent,correct,432
1289,circle,6.421,13,incongruent,correct,405
1289,circle,6.421,14,congruent,correct,432
1289,circle,6.421,15,congruent,correct,426
1289,circle,6.421,16,incongruent,correct,514
1289,circle,6.421,17,incongruent,correct,471
1289,circle,6.421,18,congruent,correct,770
1289,circle,6.421,19,incongruent,correct,406
1289,circle,6.421,20,incongruent,correct,438
1289,circle,6.421,21,congruent,correct,673
1289,circle,6.421,22,congruent,correct,559
1289,circle,6.421,23,congruent,correct,537
1289,circle,6.421,24,congruent,correct,382
1289,circle,6.421,25,incongruent,correct,426
1289,circle,6.421,26,congruent,correct,412
1289,circle,6.421,27,incongruent,correct,586
1289,circle,6.421,28,congruent,correct,425
1289,circle,6.421,29,congruent,correct,401
1289,circle,6.421,30,incongruent,correct,489
1289,circle,6.421,31,incongruent,correct,419
1289,circle,6.421,32,congruent,correct,585
1289,circle,6.421,33,congruent,correct,500
1289,circle,6.421,34,congruent,correct,419
1289,circle,6.421,35,incongruent,correct,418
1289,circle,6.421,36,congruent,correct,417
1289,circle,6.421,37,congruent,correct,444
1289,circle,6.421,38,congruent,correct,992
1289,circle,6.421,39,congruent,correct,485
1289,circle,6.421,40,incongruent,correct,477
1289,circle,6.421,41,incongruent,correct,422
1289,circle,6.421,42,congruent,correct,434
1289,circle,6.421,43,congruent,correct,424
1289,circle,6.421,44,incongruent,correct,450
1289,circle,6.421,45,congruent,correct,704
1289,circle,6.421,46,congruent,correct,372
1289,circle,6.421,47,congruent,correct,292
1289,circle,6.421,48,congruent,correct,359
1289,circle,6.421,49,congruent,correct,382
1289,circle,6.421,50,congruent,correct,369
1289,circle,6.421,51,congruent,correct,414
1289,circle,6.421,52,incongruent,correct,585
1289,circle,6.421,53,incongruent,correct,457
1289,circle,6.421,54,incongruent,correct,381
1289,circle,6.421,55,incongruent,correct,440
1289,circle,6.421,56,congruent,correct,419
1289,circle,6.421,57,congruent,correct,360
1289,circle,6.421,58,congruent,correct,378
1289,circle,6.421,59,incongruent,correct,485
1289,circle,6.421,60,incongruent,correct,379
1289,circle,6.421,61,incongruent,correct,458
1289,circle,6.421,62,incongruent,correct,429
1289,circle,6.421,63,incongruent,correct,423
1289,circle,6.421,64,congruent,correct,449
1289,circle,6.421,65,congruent,correct,353
1289,circle,6.421,66,incongruent,correct,486
1289,circle,6.421,67,congruent,correct,558
1289,circle,6.421,68,incongruent,correct,491
1289,circle,6.421,69,congruent,correct,618
1289,circle,6.421,70,congruent,correct,470
1289,circle,6.421,71,incongruent,correct,414
1289,circle,6.421,72,congruent,correct,521
1289,circle,6.421,73,congruent,correct,451
1289,circle,6.421,74,congruent,correct,773
1289,circle,6.421,75,incongruent,correct,454
1289,circle,6.421,76,incongruent,correct,423
1289,circle,6.421,77,congruent,correct,624
1289,circle,6.421,78,incongruent,correct,463
1289,circle,6.421,79,congruent,correct,358
1289,circle,6.421,80,congruent,correct,402
1289,circle,6.421,81,incongruent,correct,444
1289,circle,6.421,82,incongruent,correct,356
1289,circle,6.421,83,incongruent,correct,360
1289,circle,6.421,84,incongruent,correct,405
1289,circle,6.421,85,incongruent,correct,430
1289,circle,6.421,86,incongruent,correct,418
1289,circle,6.421,87,congruent,correct,453
1289,circle,6.421,88,congruent,correct,391
1289,circle,6.421,89,incongruent,correct,461
1289,circle,6.421,90,congruent,correct,582
1289,circle,6.421,91,incongruent,correct,466
1289,circle,6.421,92,congruent,correct,345
1289,circle,6.421,93,congruent,correct,433
1289,circle,6.421,94,congruent,correct,362
1289,circle,6.421,95,congruent,correct,366
1289,circle,6.421,96,congruent,correct,418
1289,circle,6.421,97,incongruent,correct,429
1289,circle,6.421,98,congruent,correct,452
1289,circle,6.421,99,congruent,correct,370
1289,circle,6.421,100,incongruent,correct,466
1288,circle,7.56115,1,incongruent,incorrect,527
1288,circle,7.56115,2,incongruent,correct,705
1288,circle,7.56115,3,incongruent,correct,601
1288,circle,7.56115,4,congruent,correct,533
1288,circle,7.56115,5,congruent,correct,889
1288,circle,7.56115,6,congruent,correct,468
1288,circle,7.56115,7,congruent,correct,686
1288,circle,7.56115,8,congruent,correct,551
1288,circle,7.56115,9,incongruent,correct,494
1288,circle,7.56115,10,congruent,correct,452
1288,circle,7.56115,11,incongruent,incorrect,350
1288,circle,7.56115,12,congruent,correct,571
1288,circle,7.56115,13,congruent,correct,409
1288,circle,7.56115,14,incongruent,correct,550
1288,circle,7.56115,15,incongruent,correct,451
1288,circle,7.56115,16,congruent,correct,504
1288,circle,7.56115,17,incongruent,correct,461
1288,circle,7.56115,18,congruent,correct,425
1288,circle,7.56115,19,congruent,correct,319
1288,circle,7.56115,20,congruent,correct,312
1288,circle,7.56115,1,congruent,correct,436
1288,circle,7.56115,2,congruent,correct,277
1288,circle,7.56115,3,incongruent,incorrect,346
1288,circle,7.56115,4,incongruent,correct,479
1288,circle,7.56115,5,congruent,correct,442
1288,circle,7.56115,6,incongruent,correct,441
1288,circle,7.56115,7,congruent,correct,471
1288,circle,7.56115,8,congruent,correct,474
1288,circle,7.56115,9,incongruent,incorrect,334
1288,circle,7.56115,10,congruent,correct,478
1288,circle,7.56115,11,incongruent,incorrect,349
1288,circle,7.56115,12,incongruent,correct,441
1288,circle,7.56115,13,incongruent,correct,448
1288,circle,7.56115,14,incongruent,correct,423
1288,circle,7.56115,15,incongruent,correct,366
1288,circle,7.56115,16,congruent,correct,530
1288,circle,7.56115,17,congruent,correct,471
1288,circle,7.56115,18,incongruent,correct,429
1288,circle,7.56115,19,congruent,correct,334
1288,circle,7.56115,20,incongruent,correct,401
1288,circle,7.56115,21,incongruent,correct,410
1288,circle,7.56115,22,congruent,correct,442
1288,circle,7.56115,23,congruent,correct,375
1288,circle,7.56115,24,congruent,correct,407
1288,circle,7.56115,25,incongruent,correct,485
1288,circle,7.56115,26,incongruent,correct,491
1288,circle,7.56115,27,congruent,correct,430
1288,circle,7.56115,28,congruent,correct,364
1288,circle,7.56115,29,congruent,correct,337
1288,circle,7.56115,30,incongruent,correct,453
1288,circle,7.56115,31,congruent,correct,383
1288,circle,7.56115,32,congruent,correct,353
1288,circle,7.56115,33,incongruent,correct,432
1288,circle,7.56115,34,incongruent,correct,371
1288,circle,7.56115,35,congruent,correct,373
1288,circle,7.56115,36,congruent,correct,340
1288,circle,7.56115,37,congruent,correct,324
1288,circle,7.56115,38,congruent,correct,351
1288,circle,7.56115,39,incongruent,correct,414
1288,circle,7.56115,40,incongruent,correct,393
1288,circle,7.56115,41,incongruent,correct,424
1288,circle,7.56115,42,incongruent,correct,423
1288,circle,7.56115,43,congruent,correct,490
1288,circle,7.56115,44,congruent,correct,352
1288,circle,7.56115,45,congruent,correct,337
1288,circle,7.56115,46,incongruent,correct,441
1288,circle,7.56115,47,congruent,correct,446
1288,circle,7.56115,48,congruent,correct,355
1288,circle,7.56115,49,congruent,correct,338
1288,circle,7.56115,50,congruent,correct,367
1288,circle,7.56115,51,congruent,correct,381
1288,circle,7.56115,52,congruent,correct,339
1288,circle,7.56115,53,congruent,correct,321
1288,circle,7.56115,54,incongruent,incorrect,352
1288,circle,7.56115,55,congruent,correct,392
1288,circle,7.56115,56,incongruent,correct,421
1288,circle,7.56115,57,incongruent,correct,383
1288,circle,7.56115,58,congruent,correct,386
1288,circle,7.56115,59,incongruent,incorrect,399
1288,circle,7.56115,60,congruent,correct,350
1288,circle,7.56115,61,congruent,correct,407
1288,circle,7.56115,62,congruent,correct,378
1288,circle,7.56115,63,congruent,correct,321
1288,circle,7.56115,64,congruent,correct,423
1288,circle,7.56115,65,congruent,correct,345
1288,circle,7.56115,66,incongruent,incorrect,325
1288,circle,7.56115,67,incongruent,correct,475
1288,circle,7.56115,68,incongruent,incorrect,424
1288,circle,7.56115,69,congruent,correct,449
1288,circle,7.56115,70,incongruent,correct,448
1288,circle,7.56115,71,incongruent,correct,497
1288,circle,7.56115,72,congruent,correct,396
1288,circle,7.56115,73,incongruent,correct,478
1288,circle,7.56115,74,congruent,correct,395
1288,circle,7.56115,75,incongruent,correct,495
1288,circle,7.56115,76,congruent,correct,479
1288,circle,7.56115,77,incongruent,correct,480
1288,circle,7.56115,78,congruent,correct,394
1288,circle,7.56115,79,congruent,correct,422
1288,circle,7.56115,80,congruent,correct,375
1288,circle,7.56115,81,incongruent,correct,388
1288,circle,7.56115,82,congruent,correct,390
1288,circle,7.56115,83,congruent,correct,377
1288,circle,7.56115,84,congruent,correct,310
1288,circle,7.56115,85,congruent,correct,342
1288,circle,7.56115,86,congruent,correct,329
1288,circle,7.56115,87,congruent,correct,318
1288,circle,7.56115,88,incongruent,incorrect,376
1288,circle,7.56115,89,congruent,correct,404
1288,circle,7.56115,90,congruent,correct,371
1288,circle,7.56115,91,congruent,correct,418
1288,circle,7.56115,92,congruent,correct,368
1288,circle,7.56115,93,incongruent,correct,429
1288,circle,7.56115,94,incongruent,correct,466
1288,circle,7.56115,95,congruent,correct,423
1288,circle,7.56115,96,congruent,correct,394
1288,circle,7.56115,97,congruent,correct,365
1288,circle,7.56115,98,incongruent,correct,485
1288,circle,7.56115,99,congruent,correct,499
1288,circle,7.56115,100,congruent,correct,383
1287,square,8.4362,1,incongruent,correct,2418
1287,square,8.4362,2,congruent,correct,618
1287,square,8.4362,3,congruent,correct,529
1287,square,8.4362,4,congruent,correct,467
1287,square,8.4362,5,congruent,correct,344
1287,square,8.4362,6,congruent,correct,424
1287,square,8.4362,7,congruent,correct,306
1287,square,8.4362,8,congruent,correct,490
1287,square,8.4362,9,congruent,correct,342
1287,square,8.4362,10,congruent,correct,289
1287,square,8.4362,11,congruent,correct,296
1287,square,8.4362,12,congruent,correct,90
1287,square,8.4362,13,incongruent,incorrect,251
1287,square,8.4362,14,incongruent,incorrect,363
1287,square,8.4362,15,congruent,correct,324
1287,square,8.4362,16,incongruent,incorrect,388
1287,square,8.4362,17,incongruent,incorrect,385
1287,square,8.4362,18,congruent,correct,619
1287,square,8.4362,19,incongruent,correct,559
1287,square,8.4362,20,congruent,correct,449
1287,square,8.4362,1,incongruent,correct,1520
1287,square,8.4362,2,incongruent,correct,535
1287,square,8.4362,3,incongruent,correct,574
1287,square,8.4362,4,congruent,correct,467
1287,square,8.4362,5,incongruent,correct,431
1287,square,8.4362,6,incongruent,correct,408
1287,square,8.4362,7,congruent,correct,533
1287,square,8.4362,8,incongruent,correct,472
1287,square,8.4362,9,congruent,correct,370
1287,square,8.4362,10,congruent,correct,412
1287,square,8.4362,11,incongruent,incorrect,352
1287,square,8.4362,12,congruent,correct,702
1287,square,8.4362,13,incongruent,correct,486
1287,square,8.4362,14,incongruent,correct,536
1287,square,8.4362,15,congruent,correct,460
1287,square,8.4362,16,incongruent,correct,474
1287,square,8.4362,17,congruent,correct,519
1287,square,8.4362,18,congruent,correct,591
1287,square,8.4362,19,congruent,correct,735
1287,square,8.4362,20,incongruent,correct,435
1287,square,8.4362,21,congruent,correct,401
1287,square,8.4362,22,incongruent,correct,484
1287,square,8.4362,23,congruent,correct,513
1287,square,8.4362,24,incongruent,correct,535
1287,square,8.4362,25,congruent,correct,361
1287,square,8.4362,26,congruent,correct,387
1287,square,8.4362,27,congruent,correct,398
1287,square,8.4362,28,congruent,correct,448
1287,square,8.4362,29,congruent,correct,509
1287,square,8.4362,30,incongruent,correct,485
1287,square,8.4362,31,congruent,correct,599
1287,square,8.4362,32,incongruent,correct,701
1287,square,8.4362,33,incongruent,correct,460
1287,square,8.4362,34,congruent,correct,794
1287,square,8.4362,35,congruent,correct,579
1287,square,8.4362,36,congruent,correct,340
1287,square,8.4362,37,congruent,correct,618
1287,square,8.4362,38,congruent,correct,418
1287,square,8.4362,39,congruent,correct,385
1287,square,8.4362,40,incongruent,correct,623
1287,square,8.4362,41,incongruent,incorrect,575
1287,square,8.4362,42,congruent,incorrect,566
1287,square,8.4362,43,incongruent,correct,832
1287,square,8.4362,44,incongruent,correct,983
1287,square,8.4362,45,congruent,correct,544
1287,square,8.4362,46,congruent,correct,577
1287,square,8.4362,47,incongruent,correct,582
1287,square,8.4362,48,incongruent,correct,504
1287,square,8.4362,49,congruent,correct,510
1287,square,8.4362,50,incongruent,correct,429
1287,square,8.4362,51,congruent,correct,557
1287,square,8.4362,52,incongruent,correct,524
1287,square,8.4362,53,incongruent,correct,495
1287,square,8.4362,54,incongruent,correct,564
1287,square,8.4362,55,congruent,correct,1467
1287,square,8.4362,56,congruent,correct,1085
1287,square,8.4362,57,incongruent,incorrect,840
1287,square,8.4362,58,incongruent,correct,556
1287,square,8.4362,59,congruent,correct,1480
1287,square,8.4362,60,incongruent,correct,631
1287,square,8.4362,61,incongruent,correct,639
1287,square,8.4362,62,congruent,correct,911
1287,square,8.4362,63,congruent,correct,513
1287,square,8.4362,64,congruent,correct,331
1287,square,8.4362,65,incongruent,correct,540
1287,square,8.4362,66,incongruent,correct,534
1287,square,8.4362,67,incongruent,correct,504
1287,square,8.4362,68,incongruent,correct,811
1287,square,8.4362,69,incongruent,correct,458
1287,square,8.4362,70,incongruent,correct,547
1287,square,8.4362,71,congruent,correct,544
1287,square,8.4362,72,congruent,correct,557
1287,square,8.4362,73,congruent,correct,383
1287,square,8.4362,74,congruent,correct,338
1287,square,8.4362,75,incongruent,correct,748
1287,square,8.4362,76,incongruent,correct,586
1287,square,8.4362,77,incongruent,correct,549
1287,square,8.4362,78,congruent,correct,489
1287,square,8.4362,79,incongruent,correct,1691
1287,square,8.4362,80,congruent,correct,551
1287,square,8.4362,81,congruent,correct,880
1287,square,8.4362,82,incongruent,correct,582
1287,square,8.4362,83,incongruent,correct,356
1287,square,8.4362,84,congruent,correct,524
1287,square,8.4362,85,incongruent,correct,451
1287,square,8.4362,86,incongruent,correct,402
1287,square,8.4362,87,congruent,correct,439
1287,square,8.4362,88,incongruent,correct,506
1287,square,8.4362,89,incongruent,correct,612
1287,square,8.4362,90,congruent,correct,567
1287,square,8.4362,91,incongruent,correct,450
1287,square,8.4362,92,congruent,correct,535
1287,square,8.4362,93,incongruent,correct,494
1287,square,8.4362,94,congruent,correct,542
1287,square,8.4362,95,incongruent,correct,551
1287,square,8.4362,96,incongruent,correct,517
1287,square,8.4362,97,congruent,correct,636
1287,square,8.4362,98,incongruent,correct,736
1287,square,8.4362,99,incongruent,correct,763
1287,square,8.4362,100,incongruent,correct,579
1286,square,7.20325,1,incongruent,correct,971
1286,square,7.20325,2,incongruent,correct,520
1286,square,7.20325,3,congruent,correct,1095
1286,square,7.20325,4,incongruent,correct,604
1286,square,7.20325,5,incongruent,correct,477
1286,square,7.20325,6,incongruent,correct,467
1286,square,7.20325,7,incongruent,correct,496
1286,square,7.20325,8,congruent,correct,447
1286,square,7.20325,9,congruent,correct,452
1286,square,7.20325,10,congruent,correct,583
1286,square,7.20325,11,congruent,correct,451
1286,square,7.20325,12,congruent,correct,585
1286,square,7.20325,13,incongruent,incorrect,435
1286,square,7.20325,14,incongruent,correct,514
1286,square,7.20325,15,congruent,correct,409
1286,square,7.20325,16,congruent,correct,481
1286,square,7.20325,17,incongruent,correct,467
1286,square,7.20325,18,congruent,correct,452
1286,square,7.20325,19,congruent,correct,424
1286,square,7.20325,20,incongruent,correct,582
1286,square,7.20325,1,incongruent,correct,515
1286,square,7.20325,2,congruent,correct,432
1286,square,7.20325,3,incongruent,correct,457
1286,square,7.20325,4,incongruent,correct,597
1286,square,7.20325,5,congruent,correct,595
1286,square,7.20325,6,congruent,correct,462
1286,square,7.20325,7,incongruent,correct,589
1286,square,7.20325,8,incongruent,correct,460
1286,square,7.20325,9,incongruent,correct,393
1286,square,7.20325,10,incongruent,correct,453
1286,square,7.20325,11,incongruent,correct,514
1286,square,7.20325,12,incongruent,correct,464
1286,square,7.20325,13,incongruent,correct,586
1286,square,7.20325,14,congruent,correct,417
1286,square,7.20325,15,congruent,correct,464
1286,square,7.20325,16,incongruent,correct,483
1286,square,7.20325,17,incongruent,correct,376
1286,square,7.20325,18,congruent,correct,442
1286,square,7.20325,19,incongruent,correct,383
1286,square,7.20325,20,congruent,correct,489
1286,square,7.20325,21,incongruent,correct,405
1286,square,7.20325,22,congruent,incorrect,592
1286,square,7.20325,23,congruent,correct,659
1286,square,7.20325,24,congruent,correct,580
1286,square,7.20325,25,congruent,correct,481
1286,square,7.20325,26,congruent,correct,579
1286,square,7.20325,27,congruent,correct,352
1286,square,7.20325,28,congruent,correct,586
